ax,ay,az,gx,gy,gz,date_time,temp,pressure
,,,,,,2017-4-3	17:4:51,,
0.164062,-0.0371094,0.96875,2.2583,5.5542,-0.396729,,,
0.160156,-0.0390625,0.974609,1.92261,2.28882,0.274658,,,
0.160156,-0.0332031,0.960938,1.80054,2.28882,0.366211,,,
0.15625,-0.0332031,0.958984,1.52588,2.16675,0.274658,,,
0.171875,-0.03125,0.957031,1.80054,2.53296,0.0610352,,,
0.160156,-0.0390625,0.953125,1.70898,2.53296,0.213623,,,
0.164062,-0.0234375,0.9375,1.43433,2.38037,0.244141,,,
0.160156,-0.0234375,0.953125,1.19019,2.34985,0.152588,,,
0.15625,-0.0234375,0.962891,1.31226,2.53296,0.0915527,,,
0.164062,-0.0273438,0.945312,1.2207,2.38037,0.12207,,,
0.167969,-0.0351562,0.960938,1.49536,2.28882,0.244141,,,
0.183594,-0.0234375,0.966797,1.40381,2.19727,0.12207,,,
0.160156,-0.0234375,0.955078,1.31226,2.22778,0.274658,,,
0.175781,-0.0410156,0.957031,1.40381,2.31934,0.305176,,,
0.164062,-0.0371094,0.96875,1.64795,2.19727,0.152588,,,
0.164062,-0.0273438,0.957031,1.49536,2.38037,0.274658,,,
0.164062,-0.0449219,0.964844,1.43433,2.50244,0.152588,,,
0.164062,-0.015625,0.978516,1.37329,2.31934,0.244141,,,
0.160156,-0.0273438,0.962891,1.31226,2.19727,0.335693,,,
0.179688,-0.0351562,0.953125,1.77002,2.19727,0.244141,,,
0.167969,-0.0546875,0.964844,1.5564,2.04468,0.183105,,,
0.160156,-0.0273438,0.962891,1.31226,2.22778,0.335693,,,
0.160156,-0.0410156,0.9375,1.61743,2.31934,0.152588,,,
0.183594,-0.0449219,0.964844,1.64795,2.44141,0.213623,,,
0.183594,-0.0390625,0.966797,1.58691,2.31934,0.274658,,,
0.164062,-0.03125,0.947266,1.43433,2.31934,0.183105,,,
0.160156,-0.046875,0.958984,1.28174,2.19727,0.152588,,,
0.183594,-0.03125,0.951172,1.49536,2.41089,0.335693,,,
0.164062,-0.0390625,0.960938,1.34277,2.19727,0.0915527,,,
0.15625,-0.0234375,0.955078,1.58691,2.19727,0.152588,,,
0.15625,-0.03125,0.945312,1.31226,2.2583,0.213623,,,
0.183594,-0.0234375,0.951172,1.19019,2.2583,0.274658,,,
0.164062,-0.0371094,0.958984,1.28174,2.28882,0.274658,,,
0.183594,-0.0371094,0.957031,1.37329,2.19727,0.335693,,,
0.160156,-0.0195312,0.951172,1.43433,2.28882,0.396729,,,
0.160156,-0.0351562,0.951172,1.49536,2.0752,0.213623,,,
0.160156,-0.0488281,0.964844,1.80054,2.16675,0.152588,,,
0.179688,-0.0273438,0.951172,1.61743,2.28882,0.213623,,,
0.164062,-0.0273438,0.953125,1.70898,2.31934,0.213623,,,
0.164062,-0.03125,0.947266,1.52588,2.34985,0.305176,,,
0.183594,-0.0390625,0.962891,1.19019,2.10571,0.152588,,,
0.179688,-0.03125,0.9375,1.40381,2.16675,0.152588,,,
0.15625,-0.03125,0.943359,1.95312,2.44141,0.213623,,,
0.164062,-0.0351562,0.966797,2.04468,2.56348,0.213623,,,
0.183594,-0.0390625,0.951172,1.43433,2.2583,0.274658,,,
0.160156,-0.0371094,0.9375,1.34277,2.53296,0.183105,,,
0.160156,-0.0488281,0.945312,1.70898,2.65503,0.0305176,,,
0.164062,-0.0410156,0.9375,1.46484,2.34985,0.213623,,,
0.160156,-0.03125,0.949219,1.64795,2.34985,0.335693,,,
0.15625,-0.0273438,0.958984,1.37329,2.10571,0.213623,,,
0.15625,-0.0429688,0.966797,1.19019,2.41089,0.12207,,,
0.160156,-0.046875,0.962891,1.52588,2.34985,0.213623,,,
0.171875,-0.0410156,0.960938,1.34277,2.13623,0.213623,,,
0.15625,-0.0449219,0.958984,1.52588,1.98364,0.305176,,,
0.15625,-0.0429688,0.958984,1.34277,2.16675,0.274658,,,
0.160156,-0.0390625,0.957031,1.5564,2.34985,0.183105,,,
0.167969,-0.0351562,0.960938,1.77002,2.47192,0.183105,,,
0.183594,-0.0410156,0.953125,1.49536,2.19727,0.152588,,,
0.160156,-0.0390625,0.964844,1.28174,2.22778,0.244141,,,
0.160156,-0.0351562,0.951172,1.5564,2.19727,0.274658,,,
0.15625,-0.0410156,0.957031,1.5564,2.44141,0.366211,,,
0.15625,-0.0371094,0.953125,1.43433,2.22778,0.183105,,,
0.164062,-0.0488281,0.966797,1.40381,2.31934,0.183105,,,
0.164062,-0.0351562,0.962891,1.61743,1.98364,0.305176,,,
0.15625,-0.0410156,0.957031,1.58691,2.50244,0.183105,,,
0.164062,-0.0449219,0.966797,1.43433,2.34985,0,,,
0.160156,-0.0332031,0.955078,1.31226,2.31934,0.152588,,,
0.179688,-0.0273438,0.957031,1.34277,2.2583,0.213623,,,
0.179688,-0.015625,0.953125,1.46484,2.16675,0.335693,,,
0.179688,-0.0371094,0.964844,1.40381,2.41089,0.213623,,,
0.167969,-0.015625,0.966797,1.46484,2.22778,0.274658,,,
0.164062,-0.0195312,0.962891,1.37329,2.38037,0.335693,,,
0.183594,-0.0234375,0.962891,1.31226,2.38037,0.183105,,,
0.183594,-0.0273438,0.962891,1.40381,2.13623,0.0610352,,,
0.160156,-0.03125,0.964844,1.58691,2.34985,0.213623,,,
0.179688,-0.0449219,0.960938,1.43433,2.53296,0.244141,,,
0.15625,-0.0371094,0.957031,1.49536,2.47192,0.396729,,,
0.15625,-0.0234375,0.953125,1.67847,2.22778,0.457764,,,
0.160156,-0.0234375,0.941406,1.5564,2.34985,0.274658,,,
0.160156,-0.03125,0.953125,1.43433,2.38037,0.274658,,,
0.160156,-0.0371094,0.955078,1.52588,2.28882,0.213623,,,
0.164062,-0.03125,0.9375,1.34277,2.2583,0.213623,,,
0.164062,-0.0429688,0.949219,1.43433,2.28882,0.183105,,,
0.179688,-0.0449219,0.966797,1.49536,2.34985,0.213623,,,
0.160156,-0.0332031,0.962891,1.61743,2.34985,0.213623,,,
0.183594,-0.0390625,0.964844,1.77002,2.44141,0.213623,,,
0.15625,-0.03125,0.947266,1.70898,2.41089,0.274658,,,
0.183594,-0.0234375,0.966797,1.43433,2.47192,0.335693,,,
0.164062,-0.0410156,0.943359,1.31226,2.47192,0.152588,,,
0.183594,-0.0449219,0.945312,1.61743,2.31934,0.183105,,,
0.15625,-0.0429688,0.943359,1.43433,2.28882,0.0610352,,,
0.15625,-0.03125,0.943359,1.61743,2.34985,0.213623,,,
0.164062,-0.0449219,0.939453,1.61743,2.2583,0.274658,,,
0.171875,-0.03125,0.960938,1.70898,2.2583,0.0305176,,,
0.171875,-0.0195312,0.960938,1.37329,2.19727,0.12207,,,
0.183594,-0.015625,0.966797,1.61743,2.47192,0.213623,,,
0.167969,-0.0429688,0.945312,1.5564,2.19727,0.244141,,,
0.167969,-0.0449219,0.962891,1.58691,2.28882,0.12207,,,
0.160156,-0.0195312,0.955078,1.67847,2.28882,0.274658,,,
0.175781,-0.0371094,0.964844,1.61743,2.28882,0.335693,,,
0.183594,-0.0507812,0.955078,1.28174,2.28882,0.274658,,,
0.179688,-0.03125,0.949219,1.12915,2.22778,0.213623,,,
0.160156,-0.0273438,0.9375,1.34277,2.53296,0.244141,,,
0.179688,-0.0273438,0.943359,1.58691,2.41089,0.244141,,,
0.171875,-0.0429688,0.9375,1.80054,2.44141,0.0610352,,,
0.160156,-0.0390625,0.962891,1.5564,2.22778,0.213623,,,
0.179688,-0.0410156,0.949219,1.64795,2.10571,0.152588,,,
0.171875,-0.0507812,0.949219,1.80054,2.2583,0.213623,,,
0.179688,-0.03125,0.957031,1.77002,2.22778,0.183105,,,
0.167969,-0.0371094,0.941406,1.61743,2.38037,0.0610352,,,
0.164062,-0.0351562,0.960938,1.64795,2.16675,0.152588,,,
0.15625,-0.03125,0.941406,1.49536,2.34985,0.274658,,,
0.167969,-0.0488281,0.941406,1.89209,2.28882,0.0305176,,,
0.179688,-0.0273438,0.955078,1.80054,2.53296,0.0610352,,,
0.164062,-0.0371094,0.9375,1.64795,2.31934,0.213623,,,
0.160156,-0.0527344,0.941406,1.43433,2.04468,0.305176,,,
0.179688,-0.0351562,0.966797,1.61743,2.13623,0.335693,,,
0.171875,-0.015625,0.957031,1.34277,2.13623,0.427246,,,
0.175781,-0.0351562,0.964844,1.43433,2.34985,0.213623,,,
0.164062,-0.0488281,0.964844,1.49536,2.44141,0.305176,,,
0.175781,-0.0449219,0.955078,1.40381,2.31934,0.274658,,,
0.167969,-0.0410156,0.964844,1.43433,2.31934,0.213623,,,
0.171875,-0.0390625,0.958984,1.58691,2.34985,0.244141,,,
0.158203,-0.0449219,0.960938,1.5564,2.19727,0.12207,,,
0.183594,-0.0214844,0.955078,1.58691,2.19727,0.0610352,,,
0.160156,-0.0273438,0.962891,1.5564,2.16675,0.213623,,,
0.179688,-0.0332031,0.941406,1.43433,2.0752,0.152588,,,
0.183594,-0.046875,0.964844,1.40381,2.28882,0.0610352,,,
0.183594,-0.0429688,0.949219,1.67847,2.34985,0.213623,,,
0.175781,-0.0429688,0.957031,1.49536,2.31934,-0.0305176,,,
0.175781,-0.03125,0.957031,1.28174,2.53296,0.213623,,,
0.183594,-0.015625,0.941406,1.64795,2.41089,0.213623,,,
0.167969,-0.0273438,0.966797,1.67847,2.2583,0.396729,,,
0.15625,-0.03125,0.957031,1.70898,2.38037,0.152588,,,
0.175781,-0.0351562,0.964844,1.61743,2.44141,0.213623,,,
0.15625,-0.0390625,0.945312,1.46484,2.47192,0.213623,,,
0.183594,-0.0390625,0.962891,1.40381,2.28882,0.183105,,,
0.15625,-0.0273438,0.96875,1.34277,2.19727,0.152588,,,
0.15625,-0.0429688,0.9375,1.49536,2.16675,0.213623,,,
0.183594,-0.0195312,0.960938,1.7395,2.41089,0.213623,,,
0.171875,-0.0234375,0.958984,1.61743,2.31934,0.213623,,,
0.167969,-0.0292969,0.966797,1.70898,2.19727,0.12207,,,
0.175781,-0.0410156,0.960938,1.61743,2.22778,0.244141,,,
0.160156,-0.0429688,0.962891,1.49536,2.47192,0.335693,,,
0.175781,-0.03125,0.957031,1.28174,2.19727,0.152588,,,
0.15625,-0.0195312,0.966797,1.58691,2.28882,0.152588,,,
0.183594,-0.0273438,0.955078,1.89209,2.19727,0.305176,,,
0.183594,-0.0390625,0.951172,1.89209,2.44141,0.213623,,,
0.164062,-0.0390625,0.9375,1.5564,2.28882,0.152588,,,
0.175781,-0.03125,0.962891,1.37329,2.34985,0.152588,,,
0.183594,-0.0273438,0.949219,-1.49536,-1.58691,-0.0305176,,,
0.183594,-0.03125,0.964844,-11.9934,-33.9661,29.9377,,,
0.205078,-0.0273438,1.01367,-22.0642,-41.7786,112.091,,,
0.208984,-0.0839844,0.955078,1.2207,-17.6697,151.825,,,
0.164062,0.0410156,0.894531,21.7896,8.48389,177.094,,,
0.197266,0.078125,0.992188,-8.11768,4.79126,93.6279,,,
0.224609,0.0839844,0.894531,13.6719,-0.152588,-16.1743,,,
0.201172,-0.0449219,0.9375,-0.88501,5.24902,-0.457764,,,
0.330078,-0.0800781,1.10547,2.53296,1.64795,0.183105,,,
0.242188,-0.125,0.966797,1.77002,2.2583,0.366211,,,
0.167969,0.0195312,0.953125,-0.88501,-2.68555,5.95093,,,
-0.107422,-0.128906,0.980469,11.261,41.4429,9.91821,,,
0.34375,0.150391,1.05664,93.8721,64.8499,-19.4397,,,
0.320312,0.136719,1.17383,118.622,52.1851,-37.4756,,,
0.126953,-0.392578,0.998047,134.613,26.9165,25.0549,,,
-0.355469,-0.154297,0.767578,35.7056,6.28662,69.2749,,,
0.164062,0.0371094,0.90625,31.6467,27.8625,99.8535,,,
0.126953,-0.205078,1.22852,85.6323,35.9802,107.3,,,
-0.113281,-0.273438,1.02539,118.408,77.7588,93.75,,,
0.228516,-0.205078,1.01953,159.637,59.5703,57.9834,,,
0.15625,-0.289062,0.863281,123.596,30.5481,20.813,,,
-0.382812,-0.121094,0.730469,60.4248,44.1895,-4.21143,,,
-0.400391,-0.128906,1.07031,137.573,79.6814,-12.8784,,,
-0.453125,-0.419922,1.31641,235.229,116.669,-6.74438,,,
-0.417969,-0.078125,0.789062,129.333,60.4248,-37.384,,,
0.166016,-0.189453,1.0957,19.3787,96.8628,46.7834,,,
0.160156,0.207031,1.4082,38.0859,25.6653,8.5144,,,
-0.148438,-0.361328,0.769531,-13.7634,10.5896,-11.6882,,,
-0.189453,-0.265625,0.673828,-56.4575,17.6697,-22.522,,,
-0.667969,-0.580078,0.888672,-27.8625,28.2593,-13.8855,,,
-0.427734,-0.46875,0.853516,-4.85229,40.5884,10.1624,,,
-0.335938,-0.292969,0.929688,-9.33838,55.2979,14.7705,,,
-0.332031,-0.179688,0.957031,-10.8032,52.3682,-17.0288,,,
-0.251953,-0.287109,0.935547,-35.1257,56.488,-33.4167,,,
-0.240234,-0.363281,0.839844,-94.574,71.106,-42.3889,,,
-0.173828,-0.320312,0.828125,-120.3,74.9817,-60.5164,,,
-0.164062,-0.347656,0.916016,-93.75,70.282,-48.2483,,,
-0.28125,-0.400391,1.01758,-40.6494,72.052,6.74438,,,
-0.316406,-0.419922,1.04688,-17.395,97.8088,58.3191,,,
-0.216797,-0.488281,0.951172,-28.4119,116.76,85.6934,,,
-0.191406,-0.609375,0.902344,-79.7729,137.36,94.3909,,,
-0.0175781,-0.708984,0.816406,-105.652,162.567,81.2378,,,
,,,,,,2017-4-3	17:4:56,30,0
-0.285156,-0.720703,0.703125,-112.213,-8.08716,12.5122,,,
-0.273438,-0.839844,0.613281,-83.5266,19.6838,17.4866,,,
-0.203125,-0.708984,0.59375,-54.6875,47.3328,12.6038,,,
-0.376953,-0.462891,0.570312,-23.0103,61.7676,19.5618,,,
-0.498047,-1.01172,0.515625,49.6216,112.335,79.01,,,
-0.328125,-1.05859,0.417969,69.397,198.639,178.955,,,
-0.150391,-0.886719,0.175781,-34.2712,230.377,246.124,,,
0.300781,-0.708984,0.513672,26.062,192.505,203.522,,,
0.722656,-0.103516,0.667969,72.5098,68.1763,112.671,,,
-0.0605469,-0.835938,0.517578,-120.941,2.2583,-74.5239,,,
-0.216797,-0.800781,0.466797,-169.891,-65.2161,-114.777,,,
-0.292969,-0.796875,0.443359,-118.164,-44.7693,-44.0674,,,
-0.367188,-0.787109,0.513672,-91.0339,9.21631,18.7378,,,
-0.0683594,-0.576172,0.222656,-117.432,22.6135,23.0408,,,
-0.107422,-0.863281,0.191406,-92.2241,47.9126,0.0305176,,,
-0.0332031,-0.888672,0.449219,-55.9998,-1.80054,-17.0288,,,
-0.146484,-0.830078,0.445312,-65.4907,-72.7844,2.92969,,,
-0.201172,-0.990234,0.53125,-62.1338,-60.1807,-6.34766,,,
0.0859375,-0.714844,0.166016,-68.3594,-36.4075,-16.449,,,
-0.03125,-0.84375,0.347656,-41.1987,-14.7705,9.73511,,,
-0.107422,-0.90625,0.314453,-15.3503,54.8096,31.9824,,,
-0.0605469,-0.802734,0.322266,30.7922,169.83,66.5894,,,
0.105469,-0.804688,0.410156,153.473,346.069,40.741,,,
0.185547,-0.775391,0.646484,148.285,318.451,-50.4456,,,
0.339844,-0.730469,-0.150391,-63.8428,128.723,-113.007,,,
-0.115234,-1.27734,0.0820312,-47.4548,42.9993,-96.283,,,
-0.0273438,-1.27734,0.359375,9.76562,0.518799,-62.8357,,,
-0.128906,-1.11914,0.412109,3.72314,-44.1895,-29.1443,,,
-0.117188,-1.125,0.279297,9.12476,-46.8445,-2.62451,,,
0.0878906,-1.13867,0.251953,12.3291,-22.583,-6.34766,,,
0.201172,-1.06836,0.197266,-31.7383,-19.3481,-42.0532,,,
0.238281,-0.992188,0.138672,-49.4995,6.13403,-63.1409,,,
0.0214844,-0.878906,0.0234375,-8.78906,-8.60596,10.1624,,,
0.207031,-0.890625,0.0371094,-96.8018,-10.2844,15.4114,,,
0.220703,-0.890625,0.119141,-106.689,27.1606,10.8948,,,
0.197266,-0.765625,0.125,-95.0317,52.6428,-1.64795,,,
0.142578,-0.693359,0.201172,-71.4417,63.8123,-25.238,,,
0.103516,-0.791016,0.238281,-15.0452,85.022,-38.0859,,,
0.0761719,-0.863281,0.0917969,6.80542,84.3506,-39.3066,,,
0.148438,-0.992188,0.0253906,-53.4058,55.9082,-43.396,,,
0.177734,-0.880859,0.125,-71.7468,31.9824,-39.3982,,,
0.148438,-0.794922,0.169922,-14.2517,19.4397,-42.2363,,,
0.107422,-0.853516,0.103516,12.0544,1.12915,-35.1257,,,
0.0996094,-0.878906,0.148438,12.6953,-5.61523,-18.5242,,,
0.15625,-1.00586,0.0605469,-21.1487,-5.70679,-3.35693,,,
0.232422,-0.9375,0.0976562,-17.395,-13.916,4.73022,,,
0.248047,-0.802734,0.0761719,14.2822,-28.1677,-7.23267,,,
0.244141,-0.845703,0.0898438,37.7808,-38.1165,-16.51,,,
0.167969,-0.890625,0.0898438,63.9648,-34.2407,-9.85718,,,
0.136719,-0.917969,0.0488281,41.2292,-26.123,4.82178,,,
0.164062,-0.957031,0.0234375,-2.80762,-14.3127,17.1814,,,
0.248047,-0.859375,0.0546875,-10.7117,-7.35474,16.6321,,,
0.248047,-0.841797,0.0859375,-2.47192,-2.44141,12.7258,,,
0.248047,-0.859375,0.078125,-6.37817,0,13.2751,,,
0.259766,-0.888672,0.0644531,-9.64355,5.85938,14.2212,,,
0.287109,-0.902344,0.0664062,-10.5896,10.5286,3.93677,,,
0.296875,-0.960938,0.078125,-10.376,7.41577,-10.3149,,,
0.275391,-1.04102,0.0898438,4.88281,-3.75366,-9.8877,,,
0.212891,-0.992188,0.103516,30.7922,-5.34058,7.53784,,,
0.228516,-0.982422,0.121094,21.5149,-5.09644,29.1748,,,
0.265625,-0.992188,0.0683594,-1.64795,-5.18799,36.8347,,,
0.265625,-0.957031,0.0117188,-2.04468,-5.31006,32.0129,,,
0.314453,-0.960938,0.046875,13.1836,-6.22559,25.3906,,,
0.318359,-0.955078,0.0449219,13.3667,1.5564,19.4702,,,
0.248047,-0.896484,0.0449219,-1.77002,-6.68335,3.32642,,,
0.236328,-0.953125,0.0351562,-20.5994,5.12695,3.78418,,,
0.265625,-0.958984,0.0488281,-28.1982,13.5498,3.57056,,,
0.232422,-0.943359,0.119141,-21.3013,18.0359,3.11279,,,
0.138672,-0.933594,0.15625,-12.6953,18.4326,15.1062,,,
0.148438,-0.992188,0.193359,-11.0474,11.9629,33.9966,,,
0.265625,-1,0.195312,-14.2212,5.12695,40.1611,,,
0.376953,-1.04688,0.185547,-39.032,-3.66211,29.9988,,,
0.455078,-0.970703,0.205078,-40.4358,-14.4653,13.855,,,
0.439453,-1.0332,0.148438,-17.8833,-27.4658,-17.0288,,,
0.376953,-1.08984,0.138672,2.31934,-40.4968,-46.5393,,,
0.322266,-1.08203,0.117188,7.56836,-43.3044,-57.0374,,,
0.285156,-1.03125,0.0800781,-1.46484,-41.4734,-61.6455,,,
0.318359,-1.01367,0.0761719,-4.76074,-38.0249,-72.7844,,,
0.375,-1.04688,0.0449219,37.2314,-41.5344,-93.2312,,,
0.359375,-1.01758,0.0449219,96.6797,-44.1589,-110.443,,,
0.236328,-0.957031,0.015625,128.174,-40.1611,-108.978,,,
0.179688,-0.908203,0.0429688,142.853,-21.2402,-86.1511,,,
0.0429688,-0.755859,0.00195312,134.766,7.87354,-47.9126,,,
-0.0214844,-0.740234,0.0449219,87.9211,45.8069,-2.65503,,,
0.103516,-0.900391,0.0625,-34.1187,90.3015,22.4915,,,
0.369141,-1.10938,0.0644531,-91.3391,118.011,45.3796,,,
0.474609,-1.00195,0.333984,-35.6445,130.737,37.9333,,,
0.458984,-0.833984,0.21875,-38.5132,96.1609,3.20435,,,
0.4375,-0.724609,0.367188,-8.66699,66.0706,-25.8789,,,
0.496094,-0.695312,0.484375,41.2903,40.0696,-38.0859,,,
0.447266,-0.490234,0.427734,80.78,25.4211,-40.4663,,,
0.427734,-0.742188,0.392578,78.8879,16.1743,-71.228,,,
0.351562,-0.914062,0.21875,23.8037,-7.84302,-84.3811,,,
0.273438,-0.941406,0.142578,-8.81958,-30.6702,-62.8967,,,
0.240234,-1.02344,0.162109,24.5361,-28.2898,-7.69043,,,
0.15625,-1.08594,0.236328,56.3049,-16.449,42.572,,,
0.410156,-0.84375,0.1875,0.793457,23.5901,11.0474,,,
0.439453,-0.933594,0.185547,-2.56348,13.3362,7.17163,,,
0.560547,-0.974609,0.214844,11.9629,8.14819,1.92261,,,
0.542969,-0.941406,0.201172,23.8647,1.80054,-17.8223,,,
0.519531,-0.933594,0.15625,30.7922,-21.8811,-45.0134,,,
0.447266,-0.839844,0.201172,51.4221,-40.1917,-70.3735,,,
0.394531,-0.785156,0.203125,70.8008,-41.8091,-78.0334,,,
0.296875,-0.8125,0.173828,63.5071,-33.6609,-63.5986,,,
0.195312,-0.892578,0.191406,43.8843,-7.93457,-21.5454,,,
0.111328,-0.867188,0.220703,6.2561,15.3809,32.6538,,,
0.164062,-0.802734,0.193359,-35.8887,18.3105,71.4111,,,
0.337891,-0.78125,0.257812,-44.4641,23.3765,88.1348,,,
0.498047,-0.849609,0.304688,-17.2119,30.1819,80.5969,,,
0.583984,-0.820312,0.289062,-0.335693,28.6255,47.7905,,,
0.560547,-0.810547,0.257812,-8.60596,7.87354,2.92969,,,
0.537109,-0.875,0.275391,4.08936,-20.6909,-32.6233,,,
0.548828,-0.914062,0.275391,35.614,-39.6423,-57.1899,,,
0.529297,-0.964844,0.224609,52.3071,-58.075,-69.8242,,,
0.457031,-1.01562,0.164062,70.6482,-68.2678,-76.1414,,,
0.419922,-0.923828,0.195312,88.0432,-53.4668,-75.0122,,,
0.363281,-0.828125,0.205078,74.0356,-31.5247,-64.6667,,,
0.269531,-0.763672,0.160156,34.8511,-5.70679,-41.687,,,
0.246094,-0.736328,0.207031,4.57764,23.6511,-6.98853,,,
0.25,-0.726562,0.25,-7.93457,53.3447,21.7285,,,
0.294922,-0.734375,0.287109,-23.1628,69.6716,36.1938,,,
0.355469,-0.720703,0.289062,-40.5273,75.9277,40.0696,,,
0.382812,-0.738281,0.314453,-50.6287,74.8291,40.1611,,,
0.40625,-0.773438,0.369141,-49.2859,61.0962,38.0554,,,
0.492188,-0.884766,0.384766,-28.5034,32.4707,31.25,,,
0.519531,-0.933594,0.375,-0.701904,-5.5542,15.2588,,,
0.525391,-0.849609,0.345703,13.5193,-45.3491,-3.20435,,,
0.492188,-0.845703,0.318359,20.1721,-70.0073,-14.8926,,,
0.337891,-0.751953,0.195312,-24.292,28.6255,3.54004,,,
0.294922,-0.804688,0.208984,-42.9688,46.3257,16.2659,,,
0.289062,-0.835938,0.228516,-59.3567,54.9927,31.4941,,,
0.398438,-0.880859,0.269531,-44.0369,58.0139,42.2363,,,
0.431641,-0.878906,0.265625,-25.116,48.9807,39.3372,,,
0.414062,-0.865234,0.261719,-28.2898,26.3367,24.2615,,,
0.429688,-0.820312,0.263672,-31.5552,6.98853,7.8125,,,
0.394531,-0.828125,0.275391,-23.8342,-9.3689,1.89209,,,
0.382812,-0.855469,0.269531,-10.1929,-18.5547,3.54004,,,
0.392578,-0.910156,0.248047,3.60107,-28.4424,3.50952,,,
0.345703,-0.867188,0.195312,14.7705,-36.0107,-1.2207,,,
0.287109,-0.808594,0.193359,20.0806,-32.5317,-2.31934,,,
0.205078,-0.777344,0.160156,7.41577,-21.0876,4.36401,,,
0.162109,-0.798828,0.144531,-11.5967,-12.1765,15.9607,,,
0.164062,-0.800781,0.134766,-11.5051,-5.06592,21.4233,,,
0.203125,-0.753906,0.140625,-9.15527,1.40381,21.8811,,,
0.205078,-0.816406,0.103516,-6.89697,6.68335,23.6816,,,
0.208984,-0.865234,0.154297,-4.08936,15.1367,27.0691,,,
0.212891,-0.884766,0.136719,1.19019,19.8669,32.074,,,
0.228516,-0.929688,0.140625,21.3623,21.759,32.959,,,
0.298828,-0.914062,0.181641,48.4009,17.9749,23.8342,,,
0.371094,-0.910156,0.197266,68.2068,8.5144,6.80542,,,
0.357422,-0.900391,0.189453,74.4324,2.31934,-4.91333,,,
0.306641,-0.902344,0.1875,69.9463,7.41577,-7.50732,,,
0.257812,-0.923828,0.214844,54.3213,20.9351,2.41089,,,
0.193359,-0.970703,0.183594,28.4729,42.1448,27.9846,,,
0.169922,-1.00195,0.1875,-13.7939,65.2161,58.96,,,
0.144531,-1.01758,0.210938,-65.7654,76.3245,77.4841,,,
0.234375,-0.941406,0.208984,-100.83,71.9604,77.4536,,,
0.316406,-0.925781,0.228516,-106.293,51.0864,63.1714,,,
0.404297,-0.941406,0.226562,-86.8225,20.0806,42.9382,,,
0.388672,-0.953125,0.273438,-57.3425,-8.3313,27.8931,,,
0.263672,-0.857422,0.199219,-30.2124,-25.8484,2.53296,,,
0.148438,-0.873047,0.230469,-42.2668,-16.7236,7.01904,,,
0.179688,-0.902344,0.261719,-34.8206,-17.5171,12.0239,,,
0.152344,-0.914062,0.300781,-35.2173,-32.2876,13.5498,,,
0.125,-0.978516,0.285156,-43.396,-50.415,17.7917,,,
0.154297,-1.08398,0.279297,-3.38745,-58.5022,29.1748,,,
0.238281,-1.06836,0.322266,29.7852,-68.1152,30.2429,,,
0.302734,-1.0332,0.166016,10.5896,-69.6411,18.7988,,,
0.324219,-0.992188,0.175781,-22.3999,-54.1077,9.18579,,,
0.277344,-0.970703,0.146484,-59.3262,-20.874,9.00269,,,
0.154297,-0.958984,0.167969,-99.7314,15.8997,21.2097,,,
0.0234375,-1.00391,0.193359,-123.535,49.53,42.511,,,
0.0410156,-1.04492,0.220703,-100.037,71.5332,45.8374,,,
0.242188,-1.00977,0.28125,-58.3191,78.4607,28.8086,,,
0.34375,-1.0293,0.34375,-41.1987,64.6667,6.40869,,,
0.289062,-1.06055,0.441406,-50.4761,38.6353,-12.207,,,
0.185547,-0.980469,0.482422,-80.2307,13.5193,-14.679,,,
0.0351562,-0.980469,0.517578,-110.779,-2.59399,-2.16675,,,
-0.0527344,-0.962891,0.492188,-106.842,-10.5591,12.1765,,,
-0.0136719,-0.917969,0.445312,-84.6558,-11.7188,14.1296,,,
0.121094,-0.912109,0.404297,-40.5273,-8.30078,-4.88281,,,
0.263672,-0.847656,0.359375,-14.2822,-9.00269,-24.0479,,,
0.210938,-0.847656,0.3125,-18.8293,-11.2,-24.8413,,,
0.0507812,-0.890625,0.341797,-36.1633,-14.7705,-15.2283,,,
-0.00195312,-0.888672,0.341797,-58.7463,-14.8926,0.671387,,,
-0.0449219,-0.876953,0.300781,-66.1926,-4.08936,13.7024,,,
-0.03125,-0.890625,0.238281,-38.4521,15.3503,13.4583,,,
0.107422,-0.884766,0.240234,-5.58472,33.9661,5.40161,,,
0.214844,-0.933594,0.240234,4.45557,47.8821,-0.579834,,,
0.189453,-0.908203,0.222656,3.63159,52.3376,-0.762939,,,
0.142578,-0.910156,0.296875,-1.40381,46.2341,1.7395,,,
0.101562,-0.933594,0.363281,-6.92749,32.6538,8.17871,,,
,,,,,,2017-4-3	17:5:0,30,0
0.0605469,-0.908203,0.339844,90.9424,-26.6418,55.4199,,,
0.0996094,-0.96875,0.246094,76.5686,-18.9514,50.8728,,,
0.324219,-0.876953,0.230469,81.8176,-14.5264,20.5383,,,
0.384766,-0.884766,0.191406,76.5991,-19.5618,-11.1694,,,
0.224609,-0.916016,0.195312,75.6531,2.01416,-16.2659,,,
0.0996094,-0.830078,0.427734,96.5271,-9.09424,-20.05,,,
0.0585938,-0.880859,0.447266,93.1091,-38.8184,-22.7966,,,
-0.00976562,-0.904297,0.462891,66.5588,-49.7742,-2.99072,,,
-0.119141,-0.894531,0.490234,42.45,-40.1306,12.5732,,,
0.00390625,-0.828125,0.388672,27.7405,-14.74,7.1106,,,
0.150391,-0.845703,0.318359,22.7051,13.5193,-4.15039,,,
0.197266,-0.832031,0.283203,30.8838,35.5225,-9.46045,,,
0.142578,-0.845703,0.337891,52.3682,41.0461,-6.50024,,,
0.0800781,-0.880859,0.421875,58.8684,34.0271,-3.60107,,,
0.0371094,-0.931641,0.462891,64.7278,35.0952,0.88501,,,
0.0820312,-0.996094,0.492188,51.4526,33.0811,-2.44141,,,
0.167969,-0.933594,0.451172,37.7808,16.1133,-15.5334,,,
0.162109,-0.847656,0.492188,50.9644,-7.50732,-15.9607,,,
0.107422,-0.855469,0.519531,95.2454,-23.0103,-5.98145,,,
0.123047,-0.861328,0.582031,93.7195,-30.1819,-8.3313,,,
0.121094,-0.679688,0.457031,36.4685,-15.4114,-8.42285,,,
-0.0371094,-0.859375,0.359375,-23.8953,-13.2141,3.57056,,,
-0.0664062,-1.02344,0.333984,-38.9709,-33.5693,0.671387,,,
0.0507812,-0.96875,0.384766,10.8032,-64.9719,-17.4866,,,
0.199219,-1.02539,0.419922,64.8804,-112.488,-42.1143,,,
0.322266,-1.1543,0.445312,58.2886,-138.397,-73.4863,,,
0.490234,-1.04492,0.376953,75.6226,-79.2847,-94.2078,,,
0.166016,-0.878906,0.302734,52.2156,-5.52368,-90.1794,,,
0.179688,-0.90625,0.353516,-16.8152,48.2788,-74.3713,,,
-0.0976562,-0.822266,0.248047,-57.4646,87.8601,-40.2832,,,
-0.228516,-0.867188,0.244141,-102.417,98.4497,6.40869,,,
-0.359375,-0.904297,0.351562,-167.633,94.1772,42.7551,,,
0.339844,-0.976562,0.150391,-120.789,12.8479,-122.589,,,
-0.0234375,-0.724609,0.0742188,-140.32,-27.1301,-176.117,,,
0.498047,-1.35938,0.337891,-84.9915,-27.0691,-154.266,,,
0.46875,-1.12109,0.230469,-6.7749,-20.1721,-92.5903,,,
0.339844,-1.04688,-0.0644531,-91.7053,-50.293,-76.5686,,,
0.498047,-0.941406,0.0488281,-133.514,-68.1458,-91.1255,,,
0.382812,-0.90625,-0.0195312,-150.085,-103.607,-120.392,,,
0.248047,-0.894531,-0.046875,-151.184,-161.316,-113.525,,,
0.0957031,-0.953125,0.00195312,-114.38,-177.307,-65.9485,,,
0.359375,-0.910156,0.046875,-84.6252,-122.742,-20.9656,,,
0.564453,-0.804688,-0.107422,-67.3218,-38.6658,-25.2686,,,
0.773438,-0.601562,-0.105469,-53.1616,22.2778,-72.2656,,,
0.783203,-0.623047,-0.128906,-96.5881,28.4424,-101.807,,,
0.378906,-0.697266,-0.0625,-139.709,18.7378,-112.427,,,
0.320312,-0.855469,-0.0449219,-146.851,16.7847,-100.922,,,
0.308594,-0.761719,0.0429688,-60.3943,17.1204,-71.991,,,
0.412109,-0.732422,0.0644531,89.447,25.5127,-67.2302,,,
0.882812,-0.804688,0.00976562,203.186,33.844,-120.636,,,
0.859375,-0.740234,-0.00195312,214.417,18.6462,-123.383,,,
0.566406,-0.578125,-0.199219,94.4519,-13.1531,-115.448,,,
0.265625,-0.400391,-0.0683594,-40.8325,-49.3774,-97.8699,,,
0.173828,-0.603516,-0.0878906,-54.4128,-46.4783,-54.4739,,,
0.232422,-0.607422,0.0410156,-33.905,-17.6086,-15.9302,,,
0.234375,-0.591797,-0.208984,-53.894,58.5938,28.9001,,,
0.359375,-0.619141,-0.238281,-66.04,137.695,91.0034,,,
-0.167969,-0.390625,0.0976562,-69.3054,221.649,166.901,,,
0.177734,-0.580078,0.400391,-63.7817,272.125,223.969,,,
0.513672,-0.861328,0.238281,-148.071,183.655,180.664,,,
1.22461,-0.660156,0.125,-218.536,23.4985,103.943,,,
0.910156,-0.855469,0.201172,-198.242,-68.6035,73.4253,,,
0.818359,-0.966797,0.244141,-100.555,-77.6062,50.293,,,
1.23047,-0.724609,0.238281,-18.8293,-66.1316,-3.02124,,,
0.632812,-0.804688,-0.78125,-153.534,-6.83594,-111.938,,,
0.503906,-0.472656,-0.556641,-65.033,92.6514,-107.147,,,
0.488281,-0.705078,-0.199219,-166.29,73.6084,-119.202,,,
0.585938,-0.232422,-0.160156,-169.8,-35.4309,-62.2559,,,
0.707031,-0.0429688,-1.23242,8.8501,36.1938,-3.90625,,,
0.708984,-0.576172,-0.775391,107.574,105.499,23.0103,,,
0.623047,-0.511719,-0.306641,32.135,77.4536,6.13403,,,
0.767578,-0.585938,-0.222656,-17.4866,34.9426,-20.4163,,,
0.623047,-0.582031,-0.496094,64.7278,72.998,-26.1841,,,
0.542969,-0.439453,-0.599609,170.105,151.52,27.1606,,,
0.681641,-0.3125,-0.3125,151.855,118.805,45.2881,,,
0.787109,-0.34375,-0.130859,90.7593,48.8586,45.8069,,,
0.822266,-0.382812,-0.382812,96.9238,37.5366,30.0903,,,
0.720703,-0.345703,-0.363281,12.4207,6.80542,-3.41797,,,
0.902344,-0.283203,-0.212891,-15.686,-56.0608,-4.05884,,,
0.664062,-0.140625,-0.490234,-8.45337,-36.4685,3.54004,,,
0.636719,-0.277344,-0.644531,-55.1147,-10.8337,-16.0217,,,
1.00586,-0.0292969,-0.632812,-170.441,2.65503,-24.2004,,,
0.447266,0.0683594,-0.349609,-142.944,52.6428,68.4509,,,
0.634766,-0.890625,-0.234375,147.369,104.889,99.7314,,,
0.642578,-1.04102,-0.386719,248.81,92.2546,98.6328,,,
0.732422,-0.443359,-0.408203,216.766,-4.02832,102.325,,,
0.660156,-0.548828,-0.318359,202.057,-51.3611,112.274,,,
0.521484,-0.441406,-0.615234,306.946,19.8975,111.694,,,
0.626953,-0.630859,-0.789062,367.554,115.631,68.2068,,,
0.75,-0.484375,-0.599609,294.708,132.538,-7.44629,,,
0.480469,-0.474609,-0.609375,-12.9395,131.287,-22.2473,,,
0.5625,-0.234375,-0.216797,-348.785,135.681,-83.252,,,
0.03125,-0.492188,-0.470703,-336.09,164.673,-282.288,,,
0.00976562,0.224609,-0.542969,-387.909,-154.175,-300.842,,,
2.01953,-0.263672,0.785156,-495.483,-462.311,-219.94,,,
1.73242,-1.44922,0.929688,-107.758,-556.427,-92.5598,,,
0.603516,-0.4375,-1.50781,47.3633,-193.573,105.072,,,
0.578125,-0.615234,-0.228516,-46.814,-2.59399,118.774,,,
0.529297,-0.800781,0.259766,-44.8914,28.717,115.845,,,
0.326172,-0.308594,-0.171875,31.6772,100.891,108.032,,,
-0.0234375,-0.775391,-0.146484,72.5098,128.571,101.074,,,
0.109375,-0.609375,0.00195312,81.4514,124.481,160.736,,,
-0.205078,-0.21875,-0.457031,72.7844,66.9861,195.648,,,
-0.642578,-0.277344,-0.453125,-14.9231,38.7268,142.609,,,
-0.755859,-1.04688,-0.320312,-157.684,30.3345,141.51,,,
-0.0839844,-1.70703,-0.0722656,48.0652,53.5889,202.85,,,
0.00976562,-1.5332,-0.255859,-12.4512,30.6702,215.088,,,
0.8125,-0.527344,0.0175781,62.6221,-32.8369,139.771,,,
1.12109,-0.0546875,-0.00976562,15.8081,-86.1511,2.04468,,,
0.833984,-0.1875,-0.222656,39.3982,-161.133,-102.997,,,
0.0234375,-0.962891,-0.732422,8.11768,-119.446,-131.561,,,
-0.626953,-1.125,-0.794922,46.3867,6.04248,-85.968,,,
-1.01758,-0.910156,-0.931641,143.677,107.025,-2.22778,,,
-0.662109,-0.835938,-0.380859,144.135,24.3225,10.2844,,,
0.806641,-1.82422,1.21289,42.2974,-222.809,-114.624,,,
0.888672,-1.26172,1.36914,66.04,-128.723,-133.82,,,
0.361328,-1.46484,-0.294922,-66.3452,-53.894,-101.196,,,
0.134766,-1.0625,0.0761719,-91.217,-107.544,-69.458,,,
0.289062,-0.921875,-0.128906,-211.853,-171.417,-51.5137,,,
0.353516,-0.849609,-0.0351562,-180.023,-72.7844,-32.196,,,
0.345703,-0.732422,-0.273438,-161.682,44.281,-20.8435,,,
0.587891,-0.873047,0.273438,-124.146,100.586,-39.7949,,,
0.570312,-1.25195,-0.273438,-189.819,1.92261,-85.8459,,,
0.505859,-1.18555,0.238281,-79.9866,99.0295,-46.4783,,,
0.0390625,-0.953125,-0.738281,-55.1453,43.9758,-32.959,,,
0.525391,-1.12891,0.0722656,-17.4561,78.6133,-36.3464,,,
0.523438,-0.947266,0.113281,36.1633,120.239,-41.9312,,,
0.361328,-0.664062,-0.253906,61.1572,83.4961,-51.3611,,,
0.386719,-0.853516,-0.384766,20.5078,-40.8325,66.5588,,,
0.480469,-0.587891,-0.177734,34.4238,-84.9915,103.699,,,
0.462891,-0.660156,0.259766,51.5137,-90.7593,74.5544,,,
0.207031,-0.914062,-0.308594,79.9866,-100.555,87.7075,,,
0.25,-1.17578,-0.275391,223.785,-95.6726,18.1885,,,
-0.0605469,-0.960938,-0.101562,73.3948,-81.2683,17.395,,,
0.277344,-0.962891,-0.201172,-64.4836,3.84521,42.0837,,,
0.269531,-1.02539,0.28125,-21.4844,-10.0098,130.524,,,
0.904297,-1.23242,-0.296875,82.7637,93.1702,72.6929,,,
-0.673828,-0.244141,0.947266,59.1736,36.1938,-96.2524,,,
-0.109375,-1.16211,0.0292969,-104.065,15.9912,-132.263,,,
-0.171875,-1.42383,-0.224609,-101.593,-41.2292,-39.1846,,,
-0.181641,-0.847656,0.761719,-58.9905,-69.3054,-114.075,,,
-0.195312,-1.0957,-0.429688,7.01904,-120.85,-95.8862,,,
0.103516,-1.50781,0.167969,85.2356,-23.9563,-123.352,,,
0.787109,-1.26562,-0.0175781,22.4609,36.1328,-185.974,,,
0.943359,-0.707031,0.599609,-5.06592,56.366,-128.998,,,
1.0957,-0.341797,-0.0507812,72.9065,18.8904,85.7849,,,
0.53125,-0.0332031,-0.0429688,97.3206,-45.3796,232.117,,,
0.126953,-0.5625,0.304688,40.5579,-29.5715,108.063,,,
0.474609,-0.90625,0.123047,11.1389,7.8125,3.23486,,,
1.03711,-0.974609,-0.0214844,-11.5662,10.6201,1.00708,,,
0.443359,-0.998047,0.111328,-16.3269,12.3291,-11.5662,,,
0.328125,-0.982422,-0.0488281,-16.6321,16.7542,-39.3677,,,
0.314453,-0.976562,0.0625,-21.7285,26.2451,-60.6995,,,
0.238281,-1.14648,0.167969,-11.8103,10.4675,-48.4924,,,
0.435547,-0.794922,-0.046875,-49.6216,-6.92749,-5.40161,,,
0.00976562,-0.736328,0.162109,-21.1792,-8.5144,-12.2375,,,
0.162109,-0.417969,-0.175781,29.7241,-0.183105,-32.4707,,,
0.798828,-0.408203,-0.322266,-0.152588,4.85229,-58.075,,,
0.292969,-0.794922,-0.216797,-7.65991,-2.65503,-38.6353,,,
0.455078,-1.07031,-0.212891,76.0803,-1.52588,4.11987,,,
0.347656,-0.787109,-0.0917969,30.6396,-20.3247,7.72095,,,
0.677734,-0.671875,0.0449219,17.8833,-34.3628,115.112,,,
0.0507812,-0.855469,0.0332031,1.70898,-30.6702,136.169,,,
0.0703125,-1.25586,0.111328,-3.63159,-21.8811,131.073,,,
0.660156,-1.24023,0.236328,-68.512,2.16675,174.957,,,
1.05273,-1.1875,-0.0429688,-98.9685,3.54004,220.459,,,
-0.214844,-0.949219,-0.349609,-75.5615,26.6113,149.353,,,
-1.00391,-0.716797,0.433594,-76.2634,52.9175,3.41797,,,
-0.488281,-1.13086,0.273438,-62.1643,47.0886,-2.0752,,,
-0.332031,-0.806641,-0.015625,-18.6462,13.6108,-20.1416,,,
-0.205078,-0.841797,-0.207031,3.2959,-15.0757,-15.2893,,,
0.046875,-0.763672,-0.142578,29.2053,-40.1001,-18.158,,,
-0.287109,-0.751953,0.158203,63.2019,-34.5459,-37.7502,,,
0.0742188,-0.689453,-0.0664062,71.5027,-31.0669,-48.6145,,,
-0.105469,-0.548828,0.458984,62.0422,-17.4866,-33.2031,,,
0.189453,-1.79688,0.0390625,-5.70679,2.96021,5.76782,,,
-0.214844,-1.06445,0.1875,-9.12476,14.8926,-1.98364,,,
-0.0898438,-1.10156,0.175781,1.40381,13.8855,-15.6555,,,
0.242188,-0.908203,-0.0351562,15.7471,19.0125,-45.8374,,,
0.21875,-0.976562,-0.142578,4.82178,15.1978,-31.311,,,
0.314453,-0.90625,0.0136719,-7.04956,13.1836,-27.771,,,
0.505859,-0.929688,0.0585938,-12.2375,33.02,-63.8123,,,
0.884766,-0.587891,0.261719,3.93677,86.5784,-122.406,,,
0.451172,-0.972656,-0.0449219,31.6162,154.694,-205.475,,,
-0.119141,-0.929688,0.246094,57.5256,138.214,-207.336,,,
-0.412109,-1.51953,-0.126953,53.4973,96.405,-157.745,,,
0.113281,-1.35742,-0.0429688,33.2642,57.9834,-128.235,,,
0.0664062,-1.07227,-0.181641,15.2893,3.75366,-82.0618,,,
-0.226562,-1.24023,-0.0644531,7.78198,-27.2522,-79.7119,,,
-0.0371094,-0.871094,-0.152344,29.7546,-47.2107,-42.9382,,,
-0.140625,-1.08984,0.324219,-17.8528,-84.0454,-76.9043,,,
-0.205078,-0.923828,-0.117188,-48.6755,-58.8684,-266.846,,,
,,,,,,2017-4-3	17:5:5,30,0
1.00391,-0.611328,0.0292969,29.1748,16.2048,-33.6304,,,
0.783203,-0.587891,-0.0371094,0.793457,1.86157,5.67627,,,
0.792969,-0.550781,-0.0878906,-4.15039,3.479,8.20923,,,
0.755859,-0.558594,-0.0449219,-11.0168,2.28882,12.6343,,,
0.65625,-0.585938,-0.0507812,-0.12207,3.84521,0.793457,,,
0.738281,-0.601562,-0.0957031,5.27954,4.15039,-4.54712,,,
0.769531,-0.558594,-0.0664062,0.213623,4.66919,-4.79126,,,
0.800781,-0.582031,-0.0292969,-23.5596,5.92041,-5.52368,,,
0.751953,-0.605469,0.0195312,-87.8601,3.72314,-32.4707,,,
0.970703,-0.570312,0.0175781,-85.8765,30.365,-84.9609,,,
0.863281,-1.32227,-0.0683594,-129.211,13.6108,-30.6702,,,
0.521484,-2.10938,0.353516,-48.4924,24.5056,78.5522,,,
0.939453,-0.394531,-0.0820312,-27.1912,-32.3486,24.4446,,,
1.26172,1.51758,-0.703125,-27.2217,28.6255,-19.0735,,,
0.785156,-1.0918,-0.0820312,68.3899,16.571,51.0864,,,
1.19531,-1.81836,0.150391,130.341,-3.44849,104.34,,,
1.05273,-0.285156,-0.00390625,87.677,-10.2539,89.2334,,,
1.08203,-0.421875,-0.119141,59.3262,1.83105,98.4497,,,
0.783203,0.148438,-0.257812,-15.4419,43.7317,83.0383,,,
0.375,0.259766,-0.0722656,5.09644,27.4048,39.4897,,,
0.517578,-0.578125,0.142578,36.7432,-14.801,21.9421,,,
0.554688,-0.583984,0.0976562,101.44,-7.41577,36.4685,,,
0.283203,-0.728516,0.0605469,179.993,14.5264,100.281,,,
0.652344,-0.621094,-0.046875,175.659,3.08228,97.3816,,,
0.552734,-0.605469,0.134766,190.125,-9.33838,117.798,,,
0.355469,-0.537109,0.205078,44.4031,-43.4265,107.513,,,
0.951172,-0.292969,0.236328,10.0708,-22.644,66.5894,,,
0.601562,-0.910156,-0.0078125,9.94873,-0.0915527,19.0735,,,
0.695312,-2.05273,0.0976562,-26.7944,16.571,-3.66211,,,
0.707031,-0.810547,0.226562,-29.541,23.7427,-17.1204,,,
0.603516,-0.845703,0.0800781,-43.335,23.3154,-17.6697,,,
0.648438,-0.671875,-0.0390625,-32.3486,18.9819,-16.3269,,,
0.818359,-0.953125,-0.427734,30.7922,-27.8931,24.4141,,,
0.439453,-0.746094,0.304688,35.675,-26.9165,10.8643,,,
0.53125,-0.787109,-0.0234375,39.978,-22.7966,-4.54712,,,
0.507812,-0.822266,0.111328,47.5769,-32.6538,10.7422,,,
0.574219,-0.839844,0.173828,50.9949,-22.1558,32.9285,,,
0.314453,-0.873047,0.0917969,46.1731,-8.91113,28.2288,,,
0.414062,-0.835938,0.167969,22.5525,-7.75146,10.3149,,,
0.214844,-0.6875,0.255859,23.1018,2.86865,-6.5918,,,
0.345703,-0.666016,0.255859,33.5388,29.5105,-47.0886,,,
0.0664062,-0.601562,0.210938,15.3198,39.3066,-101.41,,,
1.25195,-0.923828,0.0214844,-21.8201,22.5525,-37.6892,,,
0.330078,-0.929688,0.015625,-14.4958,13.3972,-57.0679,,,
0.806641,-0.775391,0.484375,104.309,13.8245,-55.8777,,,
-0.677734,-0.205078,0.193359,124.847,73.0286,-102.051,,,
0.683594,-0.927734,0.263672,-21.5149,72.4182,-101.929,,,
1.43555,-1.20898,-0.177734,34.8206,34.0271,-47.0276,,,
0.923828,-0.8125,0.0546875,6.19507,8.42285,-6.28662,,,
0.693359,-0.695312,0.150391,-14.1296,5.95093,32.0435,,,
0.677734,-0.898438,0.0136719,-6.5918,0.244141,42.6025,,,
0.59375,-0.835938,0.0371094,-1.92261,-6.073,30.3345,,,
0.544922,-0.839844,0.0976562,9.21631,-9.00269,4.63867,,,
0.558594,-0.771484,0.121094,6.65283,-6.37817,-1.12915,,,
0.535156,-0.740234,0.167969,4.91333,-4.91333,-2.44141,,,
0.476562,-0.710938,0.107422,12.2375,-2.80762,2.53296,,,
0.558594,-0.623047,0.115234,19.928,-3.63159,10.1624,,,
0.490234,-0.677734,0.167969,9.79614,0.12207,0.274658,,,
0.550781,-0.714844,0.167969,5.82886,6.13403,-9.30786,,,
0.464844,-0.738281,0.09375,2.71606,18.4631,-57.3425,,,
0.443359,-0.712891,0.113281,1.19019,16.1438,-84.7168,,,
0.613281,-0.804688,0.140625,-10.1318,13.4888,-28.1067,,,
0.636719,-0.744141,0.0761719,8.60596,1.46484,-13.9465,,,
0.597656,-0.777344,0.09375,16.7236,2.83813,-33.4167,,,
0.46875,-0.791016,0.0644531,5.95093,0.793457,11.6272,,,
0.505859,-0.771484,0.0839844,3.38745,2.41089,7.08008,,,
0.486328,-0.751953,0.0644531,4.39453,3.32642,2.38037,,,
0.464844,-0.765625,0.0332031,6.16455,1.15967,-3.17383,,,
0.410156,-0.722656,0,6.80542,-3.54004,-8.11768,,,
0.4375,-0.746094,0.09375,0.732422,-1.95312,-8.08716,,,
0.513672,-0.720703,0.0683594,-0.244141,6.28662,0.0915527,,,
0.529297,-0.800781,0.0566406,-14.1296,8.3313,2.0752,,,
0.580078,-0.990234,0.0253906,-8.69751,7.38525,-8.63647,,,
0.386719,-0.90625,0.0273438,-12.0239,4.30298,-18.9819,,,
0.65625,-0.828125,0.130859,-37.0178,11.7188,-20.6604,,,
0.679688,-0.8125,0.078125,-31.5552,26.3672,-29.3274,,,
0.640625,-0.806641,0.0703125,-29.6326,20.1721,-25.7874,,,
0.652344,-0.732422,-0.0507812,-16.1743,13.8855,-8.5144,,,
0.677734,-0.744141,-0.0253906,-7.53784,10.376,-3.2959,,,
0.605469,-0.808594,-0.0292969,-0.732422,4.85229,2.16675,,,
0.585938,-0.798828,-0.0917969,4.5166,0.88501,6.68335,,,
0.619141,-0.814453,-0.00195312,9.30786,-1.06812,10.7422,,,
0.630859,-0.845703,-0.0292969,10.5286,-3.96729,18.3105,,,
0.617188,-0.880859,-0.0117188,21.2097,-10.437,25.9399,,,
0.652344,-0.849609,-0.0371094,23.1628,-14.4958,39.4287,,,
0.716797,-0.724609,-0.00195312,-5.43213,-13.4277,52.4292,,,
0.460938,-1.01562,0.220703,24.0173,10.0708,23.6511,,,
0.167969,-0.564453,0.0429688,13.092,-3.8147,-7.01904,,,
0.5,-0.753906,0.107422,12.0544,-0.0610352,-6.46973,,,
0.482422,-0.732422,0.0839844,9.39941,-2.96021,-5.79834,,,
0.494141,-0.78125,0.0546875,9.82666,-3.11279,-2.04468,,,
0.554688,-0.804688,0.0507812,11.1694,-2.28882,0.244141,,,
0.517578,-0.800781,-0.0449219,14.3127,-0.793457,-0.88501,,,
0.515625,-0.808594,0.0664062,12.1765,1.09863,-1.70898,,,
0.501953,-0.796875,0.0820312,5.24902,6.28662,-1.40381,,,
0.513672,-0.802734,0.0507812,5.76782,9.39941,-0.305176,,,
0.486328,-0.833984,0.0546875,1.46484,6.53076,20.2332,,,
0.470703,-0.826172,0.0410156,-1.86157,6.28662,18.7073,,,
0.474609,-0.859375,0.0371094,1.92261,6.62231,17.2729,,,
0.490234,-0.90625,0.0527344,1.61743,7.38525,14.8926,,,
0.443359,-0.837891,0.0253906,3.90625,6.89697,13.5193,,,
0.451172,-0.859375,0.0410156,1.83105,4.82178,10.498,,,
0.441406,-0.816406,-0.03125,6.10352,1.61743,8.66699,,,
0.435547,-0.832031,0.0195312,6.7749,-0.976562,6.56128,,,
0.4375,-0.828125,0.0078125,5.12695,-2.59399,5.18799,,,
0.453125,-0.855469,0.0332031,6.62231,-5.31006,4.3335,,,
0.470703,-0.902344,0.0136719,9.33838,-8.66699,3.75366,,,
0.46875,-0.923828,0.0507812,10.437,-10.5591,3.66211,,,
0.501953,-0.929688,0.0351562,10.4675,-11.4441,4.36401,,,
0.476562,-0.876953,0.0625,10.8337,-10.7422,5.88989,,,
0.462891,-0.849609,0.0742188,8.91113,-7.96509,8.05664,,,
0.355469,-0.830078,0.0644531,6.13403,-4.18091,11.7188,,,
0.429688,-0.689453,0.121094,5.31006,-0.823975,9.82666,,,
0.542969,-0.748047,0.142578,4.85229,1.15967,7.50732,,,
0.390625,-0.943359,0.0761719,3.8147,0.823975,8.30078,,,
0.443359,-0.919922,0.0761719,3.93677,1.06812,6.53076,,,
0.490234,-0.878906,0.0703125,4.11987,1.12915,4.63867,,,
0.410156,-0.900391,0.0722656,3.87573,0.457764,3.479,,,
0.414062,-0.84375,0.0761719,3.17383,0.518799,1.70898,,,
0.382812,-0.839844,0.0722656,2.62451,0.610352,0.549316,,,
0.402344,-0.791016,0.0625,3.63159,0.488281,-0.274658,,,
0.404297,-0.791016,0.0820312,3.35693,-0.305176,-0.396729,,,
0.375,-0.867188,0.0859375,1.5564,-0.946045,-2.47192,,,
0.46875,-0.873047,0.111328,2.53296,-0.244141,-3.35693,,,
0.445312,-0.919922,0.0957031,2.71606,-0.671387,-3.54004,,,
0.441406,-0.919922,0.0839844,2.04468,-1.31226,-4.3335,,,
0.466797,-0.880859,0.0761719,1.5564,-0.152588,-4.63867,,,
0.439453,-0.810547,0.117188,1.43433,1.00708,-3.23486,,,
0.435547,-0.880859,0.0996094,2.68555,-2.59399,-2.47192,,,
0.410156,-0.792969,0.103516,3.54004,-1.00708,-3.479,,,
0.429688,-0.789062,0.0878906,4.36401,-0.274658,-4.60815,,,
0.435547,-0.808594,0.0917969,2.44141,-1.31226,-5.67627,,,
0.4375,-0.849609,0.117188,2.47192,-1.61743,-6.65283,,,
0.447266,-0.876953,0.09375,3.14331,-1.95312,-7.47681,,,
0.496094,-0.910156,0.105469,4.66919,-2.71606,-7.75146,,,
0.462891,-0.892578,0.0976562,5.0354,-4.05884,-8.3313,,,
0.484375,-0.896484,0.119141,5.58472,-5.27954,-7.65991,,,
0.447266,-0.802734,0.0429688,5.88989,-6.56128,-6.7749,,,
0.439453,-0.740234,0.0546875,7.65991,-7.26318,-6.83594,,,
0.525391,-0.695312,0.109375,8.97217,-7.53784,-6.34766,,,
0.375,-0.951172,0.117188,9.70459,-8.3313,-4.45557,,,
0.5625,-0.837891,0.177734,8.63647,-9.61304,-1.95312,,,
0.5625,-0.820312,0.103516,8.72803,-11.2915,-0.518799,,,
0.521484,-0.880859,0.03125,9.76562,-10.8948,0.396729,,,
0.457031,-0.925781,0.175781,10.1624,-9.58252,0.701904,,,
0.472656,-0.927734,0.236328,10.0708,-8.5144,1.43433,,,
0.560547,-0.941406,0.0273438,9.552,-8.48389,1.67847,,,
0.376953,-0.992188,0.0566406,9.24683,-8.78906,2.41089,,,
0.345703,-0.820312,0.212891,9.15527,-7.62939,3.479,,,
0.560547,-0.677734,0.160156,9.49097,-3.57056,4.85229,,,
0.472656,-0.835938,0.210938,9.00269,0.701904,6.46973,,,
0.464844,-0.830078,0.238281,7.01904,2.92969,8.60596,,,
0.507812,-0.732422,0.205078,6.19507,3.96729,9.21631,,,
0.296875,-0.943359,0.181641,4.21143,5.76782,8.54492,,,
0.333984,-1.0918,0.115234,2.34985,7.35474,7.93457,,,
0.558594,-0.671875,0.185547,0.12207,7.59888,6.40869,,,
0.439453,-0.623047,0.234375,-1.80054,7.72095,4.24194,,,
0.443359,-0.894531,0.158203,-1.40381,7.78198,5.58472,,,
0.345703,-0.888672,0.126953,0.274658,10.9253,8.17871,,,
0.416016,-0.791016,0.1875,1.70898,14.1907,11.1389,,,
0.324219,-0.779297,0.138672,2.2583,-2.0752,1.31226,,,
0.238281,-0.753906,0.248047,0.915527,-2.0752,-5.24902,,,
0.318359,-0.771484,0.126953,-0.549316,-0.0610352,-11.9934,,,
0.269531,-0.699219,0.134766,-3.35693,4.05884,-17.1204,,,
0.285156,-0.658203,0.179688,-9.52148,7.93457,-19.9585,,,
0.408203,-0.738281,0.228516,-9.0332,14.6179,-20.4773,,,
0.476562,-0.849609,0.195312,-13.8855,16.8457,-18.4631,,,
0.576172,-1.00391,0.1875,-9.67407,17.4561,-11.7188,,,
0.578125,-1.07422,0.113281,-4.42505,14.801,-2.28882,,,
0.599609,-1.00586,0.113281,-4.88281,14.1602,6.71387,,,
0.566406,-0.896484,0.167969,-2.62451,13.3667,13.5803,,,
0.517578,-0.853516,0.134766,3.02124,9.27734,17.7917,,,
0.449219,-0.871094,0.0371094,2.96021,3.11279,18.0054,,,
0.458984,-0.904297,0.107422,9.61304,-3.479,17.1814,,,
0.457031,-0.912109,0.0546875,10.5591,-8.66699,14.6484,,,
0.382812,-0.908203,0.0859375,10.9558,-12.207,10.9558,,,
0.462891,-0.917969,0.0898438,7.65991,-13.9465,3.63159,,,
0.355469,-0.841797,0.105469,6.31714,-12.3901,-5.61523,,,
0.322266,-0.814453,0.125,5.7373,-9.58252,-13.9771,,,
0.289062,-0.777344,0.103516,-0.213623,-5.67627,-21.3013,,,
0.373047,-0.796875,0.185547,-3.84521,-0.579834,-26.0315,,,
0.435547,-0.765625,0.177734,-5.49316,4.11987,-27.3743,,,
0.367188,-0.806641,0.185547,-1.15967,5.98145,-24.9634,,,
0.509766,-0.804688,0.078125,-2.47192,5.15747,-22.5525,,,
0.589844,-0.800781,-0.00585938,-4.69971,4.85229,-19.7449,,,
0.484375,-0.966797,0.169922,-2.10571,4.60815,-16.449,,,
0.470703,-0.791016,0.169922,-1.49536,3.69263,-13.5803,,,
0.492188,-0.792969,0.0996094,-2.53296,2.83813,-10.9863,,,
0.564453,-0.822266,0.0605469,-3.72314,4.60815,-8.45337,,,
0.587891,-0.980469,0.0839844,-4.63867,8.23975,-6.71387,,,
0.503906,-0.804688,0.173828,-5.7373,12.5122,-6.10352,,,
0.527344,-0.814453,0.216797,-7.17163,16.2659,-6.46973,,,
,,,,,,2017-4-3	17:5:10,30,0
0.650391,-0.925781,0.0996094,2.56348,-4.11987,-16.2354,,,
0.619141,-0.921875,0.0839844,5.52368,-5.18799,-16.1743,,,
0.441406,-0.875,0.0566406,6.83594,-7.2937,-16.7236,,,
0.558594,-0.820312,0.0625,7.50732,-7.01904,-15.5945,,,
0.496094,-0.707031,0.142578,8.17871,-1.49536,-9.3689,,,
0.613281,-0.785156,0.152344,7.35474,-1.61743,4.3335,,,
0.707031,-0.912109,0.142578,10.0403,-5.67627,16.9983,,,
0.701172,-0.841797,0.0664062,10.6201,-7.75146,29.3579,,,
0.640625,-0.875,0.078125,10.498,-5.70679,38.3606,,,
0.566406,-0.794922,0.167969,8.81958,-3.26538,29.2358,,,
0.402344,-0.601562,0.0761719,7.04956,-1.95312,8.91113,,,
0.117188,-0.537109,0.109375,2.16675,0.701904,-1.00708,,,
0.337891,-0.746094,0.160156,-0.213623,6.10352,10.6812,,,
0.849609,-1.11523,0.126953,4.05884,1.67847,13.3667,,,
0.65625,-0.816406,-0.00585938,4.76074,-2.31934,19.989,,,
0.595703,-1.05469,0.09375,8.23975,-0.12207,29.2664,,,
0.648438,-0.939453,0.162109,10.9253,3.02124,33.9661,,,
0.599609,-0.800781,0.173828,12.3596,1.40381,37.6892,,,
0.457031,-0.804688,0.113281,10.7117,-0.854492,39.7644,,,
0.417969,-0.751953,0.09375,10.6506,-1.98364,39.7339,,,
0.404297,-0.746094,0.117188,10.7727,-1.70898,38.4216,,,
0.375,-0.753906,0.109375,11.4746,-1.83105,35.3699,,,
0.390625,-0.841797,0.144531,11.2,-3.8147,30.4565,,,
0.421875,-0.916016,0.128906,10.7117,-6.10352,24.6277,,,
0.378906,-0.986328,0.142578,10.2844,-7.56836,18.158,,,
0.384766,-0.996094,0.150391,9.33838,-8.54492,11.261,,,
0.349609,-0.910156,0.132812,7.93457,-9.42993,4.91333,,,
0.314453,-0.863281,0.136719,6.80542,-10.0708,-1.19019,,,
0.289062,-0.755859,0.136719,5.76782,-10.1624,-6.43921,,,
0.28125,-0.742188,0.130859,4.82178,-9.70459,-11.0168,,,
0.285156,-0.748047,0.150391,3.9978,-9.0332,-14.7095,,,
0.326172,-0.810547,0.173828,2.74658,-8.17871,-16.9678,,,
0.445312,-0.833984,0.203125,-0.671387,9.12476,3.57056,,,
0.4375,-0.849609,0.214844,-0.793457,10.6812,6.62231,,,
0.449219,-0.904297,0.203125,-0.579834,11.8408,9.12476,,,
0.439453,-0.882812,0.201172,-0.396729,12.0544,11.1084,,,
0.431641,-0.890625,0.166016,-0.457764,12.146,11.8408,,,
0.431641,-0.859375,0.158203,-0.274658,11.8103,11.6272,,,
0.378906,-0.875,0.164062,-0.274658,11.2,10.2234,,,
0.396484,-0.828125,0.136719,0.0915527,9.97925,8.60596,,,
0.359375,-0.828125,0.152344,0.213623,8.78906,6.43921,,,
0.351562,-0.832031,0.130859,0.396729,7.2937,3.90625,,,
0.371094,-0.847656,0.142578,0.274658,5.82886,1.0376,,,
0.394531,-0.873047,0.130859,0.732422,3.50952,-1.43433,,,
0.394531,-0.890625,0.148438,0.579834,1.86157,-3.84521,,,
0.398438,-0.898438,0.136719,0.854492,0.0915527,-5.64575,,,
0.398438,-0.876953,0.148438,1.31226,-1.25122,-6.68335,,,
0.400391,-0.859375,0.136719,1.92261,-2.38037,-7.14111,,,
0.390625,-0.867188,0.166016,2.53296,-2.80762,-7.17163,,,
0.425781,-0.871094,0.169922,2.50244,-3.11279,-6.37817,,,
0.410156,-0.863281,0.166016,3.05176,-3.479,-5.15747,,,
0.421875,-0.869141,0.183594,3.63159,-3.32642,-3.32642,,,
0.425781,-0.855469,0.167969,3.72314,-2.80762,-1.5564,,,
0.445312,-0.878906,0.169922,3.87573,-2.44141,0.396729,,,
0.445312,-0.888672,0.175781,4.3335,-1.67847,2.31934,,,
0.419922,-0.855469,0.167969,4.08936,-0.946045,3.93677,,,
0.433594,-0.845703,0.164062,4.15039,0.183105,5.00488,,,
0.40625,-0.863281,0.185547,4.02832,0.793457,5.82886,,,
0.40625,-0.845703,0.15625,3.90625,1.64795,6.073,,,
0.402344,-0.835938,0.164062,3.2959,2.34985,5.85938,,,
0.386719,-0.828125,0.160156,2.68555,2.89917,5.34058,,,
0.378906,-0.861328,0.167969,2.04468,3.32642,4.27246,,,
0.378906,-0.855469,0.183594,1.77002,3.69263,2.92969,,,
0.390625,-0.851562,0.169922,1.2207,3.87573,1.28174,,,
0.433594,-0.875,0.167969,-0.213623,3.72314,-2.96021,,,
0.410156,-0.878906,0.183594,0.152588,3.50952,-2.13623,,,
0.433594,-0.863281,0.15625,0.488281,3.44849,-1.12915,,,
0.40625,-0.871094,0.169922,0.976562,3.23486,-0.183105,,,
0.410156,-0.875,0.160156,0.274658,2.44141,-0.0915527,,,
0.349609,-0.873047,0.0800781,-0.0610352,2.2583,-2.44141,,,
0.34375,-0.84375,0.189453,-1.37329,2.96021,-5.15747,,,
0.400391,-0.847656,0.210938,-2.04468,3.78418,-6.92749,,,
0.412109,-0.878906,0.138672,-3.2959,0.549316,-7.96509,,,
0.421875,-0.931641,0.119141,1.67847,-1.70898,-10.1318,,,
0.361328,-0.808594,0.1875,-1.98364,2.74658,-18.4631,,,
0.332031,-0.785156,0.216797,-0.579834,6.86646,-24.4751,,,
0.355469,-0.902344,0.253906,7.1106,-12.8174,-25.6958,,,
0.623047,-1.41797,0.253906,-6.98853,-39.8865,-27.1606,,,
0.791016,-1.22852,0.173828,-32.196,-45.3491,-28.9917,,,
0.15625,-1.28516,-0.154297,-40.0391,-76.355,-26.947,,,
0.476562,-1.76367,0.330078,-42.3584,-82.2144,-8.17871,,,
0.103516,-1.0957,0.417969,-14.0076,-85.2356,12.085,,,
0.345703,-0.980469,0.185547,10.9863,-81.2988,31.7688,,,
0.419922,-1.05859,0.513672,-7.90405,-73.1812,48.4924,,,
0.279297,-0.701172,0.513672,7.14111,-55.1147,64.1785,,,
0.357422,-0.630859,0.548828,42.9993,-44.5251,88.2568,,,
0.433594,-0.980469,0.488281,58.7463,-46.4172,117.523,,,
0.34375,-1.21094,0.605469,67.8101,-48.9197,122.101,,,
0.205078,-1.24023,0.482422,72.7539,-62.3779,123.169,,,
0.279297,-1.07812,0.496094,78.0945,-62.9883,123.901,,,
0.3125,-0.927734,0.496094,87.0056,-50.8728,124.451,,,
0.345703,-0.820312,0.505859,95.4285,-32.8979,123.291,,,
0.386719,-0.734375,0.519531,101.044,-11.0474,120.087,,,
0.326172,-0.724609,0.509766,105.927,7.75146,114.136,,,
0.294922,-0.777344,0.476562,102.539,21.5149,102.386,,,
0.220703,-0.794922,0.5,95.1843,26.123,87.2192,,,
0.0859375,-0.853516,0.408203,51.7578,31.7993,-14.679,,,
0.121094,-0.853516,0.453125,46.6614,36.0413,-24.5972,,,
0.0820312,-0.900391,0.457031,40.4053,39.6118,-30.6091,,,
0.09375,-0.943359,0.447266,35.2783,40.6189,-32.7148,,,
0.0546875,-0.988281,0.390625,28.3203,36.4075,-42.9688,,,
0.0195312,-1.00391,0.410156,19.989,31.6467,-49.8047,,,
0.0292969,-1,0.410156,11.6272,30.9143,-60.0281,,,
0.0292969,-0.933594,0.382812,1.40381,30.8838,-67.2302,,,
0.0214844,-0.876953,0.351562,-6.98853,34.2712,-71.2891,,,
0.0507812,-0.875,0.396484,-10.7727,36.9568,-68.2983,,,
0.0644531,-0.882812,0.375,-14.6179,35.4614,-66.5894,,,
-0.0429688,-0.957031,0.40625,-22.1558,26.2146,-71.1975,,,
-0.0292969,-0.976562,0.380859,-28.4119,20.5688,-72.9065,,,
-0.0761719,-1.02539,0.382812,-35.4004,22.4304,-71.9299,,,
0.00976562,-0.925781,0.445312,-34.8206,26.123,-72.876,,,
-0.0371094,-0.806641,0.525391,-23.8953,29.2358,-69.8853,,,
0.0859375,-0.683594,0.511719,-12.3291,39.0015,-64.4531,,,
0.0429688,-0.570312,0.525391,-11.0779,46.7834,-64.4836,,,
0.0195312,-0.515625,0.435547,-15.5945,59.8145,-71.8689,,,
-0.046875,-0.523438,0.359375,-16.4185,63.385,-78.2471,,,
-0.0214844,-0.396484,0.322266,-11.1084,14.6179,-72.7844,,,
0.107422,-0.759766,0.351562,-24.2004,18.0054,-48.3704,,,
0.148438,-1.00195,0.701172,-23.8953,47.9736,-18.9514,,,
0.0371094,-0.808594,1,-9.91821,8.57544,-0.213623,,,
-0.183594,-1.38086,0.359375,-35.7666,-16.4185,-11.5356,,,
-1.22461,-1.46289,0.152344,-82.2754,-14.2822,24.1089,,,
-1.12305,-1.51367,-0.298828,-135.498,-8.54492,53.0396,,,
-0.660156,-1.00586,-0.0488281,-155.487,-9.3689,77.7588,,,
-0.251953,-0.876953,-0.0410156,-149.902,2.22778,99.2126,,,
-0.0410156,-0.658203,0.0957031,-146.576,8.66699,118.713,,,
0.103516,-0.654297,0.244141,-156.219,0.152588,127.289,,,
-0.0742188,-0.740234,0.154297,-14.9536,-37.5671,127.747,,,
-0.248047,-1.21484,-0.0800781,111.816,36.0413,-102.112,,,
0.167969,-1.45508,0.310547,123.077,14.9841,-111.359,,,
0.185547,-1.23633,0.572266,148.804,29.3274,-105.957,,,
0.244141,-1.16211,0.310547,176.544,43.335,-84.4421,,,
0.0996094,-1.35352,-0.191406,180.145,36.1633,-56.3049,,,
0.0546875,-1.46289,-0.318359,146.79,24.0479,-27.8015,,,
0.00195312,-1.33398,-0.507812,98.9685,17.6086,-0.854492,,,
0.119141,-1.32227,-0.597656,55.1147,11.7188,27.6184,,,
0.345703,-1.25391,-0.46875,13.6719,-19.165,64.3616,,,
0.521484,-1.44727,-0.601562,-27.6794,-66.3147,103.668,,,
0.619141,-1.38672,-0.421875,-41.0461,-86.0901,130.035,,,
0.482422,-1.19531,-0.273438,-44.281,-71.106,149.109,,,
0.701172,-1.11719,-0.230469,-84.259,-36.6211,184.601,,,
0.689453,-0.701172,-0.351562,-145.874,-12.6648,130.035,,,
0.568359,-0.441406,-0.371094,-181.732,17.8528,54.2603,,,
0.683594,-0.648438,-0.0078125,-203.4,22.6746,8.02612,,,
0.636719,-0.701172,0.382812,-223.907,20.5688,-31.9214,,,
0.544922,-0.888672,0.675781,-229.309,6.86646,-58.8684,,,
0.222656,-0.804688,1.01172,-216.522,-3.84521,-80.2612,,,
0.183594,-0.681641,0.894531,-186.554,19.043,-87.2498,,,
0.0820312,-0.4375,0.421875,-126.007,3.75366,-92.804,,,
-0.144531,-0.494141,-0.03125,-67.4438,-22.0032,-81.1462,,,
-0.205078,-1.03906,0.423828,-50.9949,-26.7334,-48.0652,,,
-0.837891,-1.2207,0.0703125,-46.3562,-28.2898,-22.1252,,,
-1.08203,-1.23242,-0.0742188,-34.0881,-12.6038,0.396729,,,
-0.724609,-1.16211,-0.0195312,-8.57544,6.62231,9.8877,,,
-0.708984,-1.18164,0.119141,25.3601,12.4512,0.0915527,,,
-0.644531,-0.664062,0.232422,64.4836,5.58472,-18.6157,,,
-0.371094,-0.607422,0.398438,87.1582,-4.76074,-32.1655,,,
-0.0683594,-0.65625,0.345703,106.171,-8.36182,-35.6445,,,
0.0410156,-0.792969,0.382812,114.105,-1.06812,-31.1584,,,
-0.0078125,-0.90625,0.207031,106.903,7.69043,-22.9797,,,
0.482422,-1.03125,0.164062,59.021,21.3013,-19.5618,,,
0.513672,-0.964844,0.0449219,55.9692,13.2141,-30.2124,,,
0.457031,-0.939453,0.00390625,55.7556,8.88062,-37.8418,,,
0.435547,-0.914062,0.03125,50.8118,6.22559,-41.5344,,,
0.359375,-0.9375,0.00585938,44.0674,6.89697,-41.2903,,,
0.228516,-0.949219,0.00976562,34.9731,8.78906,-38.1165,,,
0.185547,-0.96875,0.0136719,27.0081,10.2234,-32.0435,,,
0.171875,-0.978516,0.00390625,20.1416,13.0615,-23.2239,,,
0.111328,-0.970703,-0.0332031,13.7634,16.3269,-11.9934,,,
0.107422,-0.955078,-0.0371094,6.34766,16.1133,0.305176,,,
0.123047,-0.990234,0.0585938,-0.88501,13.031,12.0544,,,
0.136719,-0.96875,0.0996094,-2.38037,11.2305,20.813,,,
0.158203,-0.947266,0.177734,-2.74658,6.40869,26.0315,,,
0.240234,-0.939453,0.162109,1.0376,3.60107,27.7405,,,
0.300781,-0.945312,0.199219,8.69751,2.96021,25.3296,,,
0.322266,-0.949219,0.128906,14.801,1.28174,19.3176,,,
0.384766,-0.882812,0.125,15.9607,-2.71606,10.8643,,,
0.363281,-0.896484,0.046875,17.2729,-4.94385,3.14331,,,
0.328125,-0.900391,0.00585938,15.4419,-6.98853,-2.38037,,,
0.291016,-0.933594,0.0566406,13.4583,-7.87354,-4.69971,,,
0.271484,-0.941406,0.0566406,12.4207,-8.20923,-4.79126,,,
0.21875,-0.947266,0.123047,11.7493,-8.3313,-5.00488,,,
0.1875,-0.962891,0.138672,10.6201,-7.62939,-4.60815,,,
0.138672,-0.980469,0.132812,8.48389,-7.2937,-3.05176,,,
0.150391,-1.00195,0.126953,6.34766,-7.90405,-1.58691,,,
0.171875,-1.03516,0.142578,3.54004,-7.47681,-0.823975,,,
0.144531,-1.03125,0.078125,-0.244141,-7.01904,-0.915527,,,
0.185547,-0.984375,0.046875,-3.9978,-5.98145,-0.946045,,,
0.169922,-0.998047,-0.0507812,-4.94385,-4.73022,0.579834,,,
0.349609,-0.945312,-0.0527344,-3.479,-3.84521,4.94385,,,
-0.0566406,-1.24609,0.0546875,-1.5564,-3.38745,8.94165,,,
0.0957031,-1.03906,0.0722656,-0.518799,-2.13623,11.1694,,,
,,,,,,2017-4-3	17:5:15,30,0
0.291016,-1.02734,0.00390625,21.4233,-10.2844,32.5623,,,
0.337891,-1.07422,0.173828,21.3013,-16.1743,42.3279,,,
0.361328,-1.03516,0.177734,28.656,-19.0125,39.7339,,,
0.550781,-0.914062,0.238281,17.2729,-14.679,26.6724,,,
0.664062,-0.763672,0.0839844,-16.2048,-9.0332,13.2751,,,
0.294922,-0.953125,0.09375,-72.1436,-25.1465,10.3455,,,
0.160156,-1.0625,0.0800781,-102.112,-28.2288,14.3127,,,
0.142578,-1.05273,0.181641,-113.464,-44.342,8.05664,,,
-0.0292969,-0.880859,0.214844,-61.676,-45.105,2.13623,,,
0.644531,-0.486328,0.693359,-35.4919,-48.9807,18.7073,,,
0.951172,-0.669922,0.736328,-32.5928,-68.0542,14.5569,,,
0.333984,-0.865234,0.320312,-21.8506,-8.20923,-32.959,,,
-0.796875,-0.722656,-0.572266,-41.3513,26.6724,-40.863,,,
-1.33594,-0.949219,-0.298828,-42.8772,-11.322,-0.335693,,,
-0.736328,-0.900391,0.556641,-15.8691,-29.4189,41.9312,,,
-0.416016,-1.43164,0.878906,15.9302,-3.08228,41.0461,,,
0.160156,-0.988281,0.632812,-0.640869,17.9749,46.2646,,,
0.480469,-1.02344,0.298828,-31.2195,30.0903,35.2478,,,
0.140625,-1.0625,0.146484,-56.3354,38.9709,31.3721,,,
0.265625,-1.02734,0.201172,-73.8831,37.0789,31.6772,,,
0.376953,-1.02148,0.0800781,-76.5381,14.9536,21.7285,,,
0.173828,-1.02539,-0.0820312,-85.3882,-1.5564,4.94385,,,
0.09375,-0.917969,0.0410156,-77.179,-21.5149,-18.2495,,,
0.179688,-1.04297,0.0351562,-56.3049,-19.2871,-29.8767,,,
0.154297,-0.978516,0.21875,-28.6255,-9.61304,-41.9006,,,
0.294922,-0.873047,0.533203,-16.3269,-4.02832,-50.9644,,,
-0.0742188,-0.943359,0.333984,-13.8245,8.42285,-54.5349,,,
-0.265625,-1.08984,0.107422,-8.05664,8.75854,-77.9419,,,
-0.507812,-1.0957,-0.03125,-53.7415,24.6582,-93.811,,,
-0.769531,-1.21875,-0.197266,-73.822,20.7825,-72.6013,,,
0.0527344,-1.0918,0.335938,-41.0156,8.91113,-50.8728,,,
0.662109,-0.798828,0.607422,0.213623,-3.87573,-41.5344,,,
-0.113281,-0.958984,0.404297,-66.2231,53.7415,14.8926,,,
-0.101562,-0.898438,0.414062,-29.2664,38.7573,10.8337,,,
-0.234375,-0.701172,0.253906,11.9019,37.4146,17.0898,,,
-0.236328,-0.597656,0.273438,36.0718,35.7056,16.9678,,,
0.0371094,-0.576172,0.345703,65.3687,28.9917,9.61304,,,
0.25,-0.818359,0.402344,87.4329,24.7803,5.18799,,,
0.425781,-0.896484,0.359375,97.5952,15.5945,2.16675,,,
0.505859,-0.859375,0.447266,95.4285,-4.79126,-3.35693,,,
0.652344,-0.990234,0.302734,93.4143,-22.6746,-10.2539,,,
0.601562,-0.949219,0.0957031,72.2656,-27.1301,-11.4441,,,
0.537109,-0.898438,0.0175781,34.1492,-15.2893,-4.05884,,,
0.470703,-0.927734,-0.103516,-4.5166,6.13403,3.54004,,,
0.443359,-0.917969,0.03125,-43.1519,20.813,7.04956,,,
0.416016,-0.917969,0.240234,-68.8171,30.1819,13.1836,,,
0.423828,-1.07422,0.449219,-74.5239,33.2031,22.8271,,,
0.277344,-1.01953,0.4375,-62.4084,26.3672,18.8599,,,
0.28125,-0.849609,0.363281,-41.9617,15.1062,11.8408,,,
0.326172,-0.738281,0.314453,-30.7007,-5.18799,-10.7117,,,
0.326172,-0.693359,0.326172,-13.0005,-15.0146,-33.1421,,,
0.179688,-0.751953,0.21875,2.31934,-11.322,-35.553,,,
-0.0800781,-0.863281,0.177734,23.4985,-10.376,-44.5862,,,
0.0214844,-0.908203,-0.0078125,41.8701,0.762939,-44.8608,,,
0.0175781,-0.929688,-0.0507812,66.7725,20.2026,-33.905,,,
-0.0253906,-0.912109,0.0703125,61.0046,41.8396,-18.4021,,,
0.0703125,-0.847656,0.0839844,60.5164,57.1289,-6.74438,,,
0.111328,-0.671875,0.113281,61.2793,53.1006,-8.48389,,,
0.0917969,-0.59375,0.216797,57.0068,45.4712,-11.5356,,,
0.162109,-0.728516,0.214844,51.8799,41.8091,-9.12476,,,
0.166016,-0.751953,0.435547,56.0303,44.7693,-1.00708,,,
0.552734,-1.02344,0.453125,57.6782,30.4871,6.89697,,,
1.0625,-0.935547,0.736328,73.5779,8.75854,1.43433,,,
1.27148,-1.07617,0.527344,87.0972,1.31226,-5.64575,,,
0.464844,-0.576172,0.496094,-33.02,-0.183105,2.65503,,,
0.351562,-0.578125,0.527344,-20.6299,-4.82178,-3.72314,,,
0.193359,-0.626953,0.427734,-7.35474,-6.50024,-5.49316,,,
0.121094,-0.755859,0.367188,8.02612,-6.2561,-4.11987,,,
0.0957031,-0.859375,0.283203,24.1089,-1.58691,-1.06812,,,
0.0839844,-0.96875,0.230469,34.4543,2.2583,0.12207,,,
0.125,-1.00391,0.236328,44.9219,13.855,1.7395,,,
0.152344,-1.04688,0.195312,59.7839,33.7524,6.16455,,,
0.158203,-1.02148,0.181641,69.8242,49.4995,9.91821,,,
0.332031,-0.931641,0.169922,55.1147,51.3611,8.05664,,,
0.445312,-0.792969,0.248047,46.7834,42.9382,1.58691,,,
0.544922,-0.792969,0.339844,39.2761,30.7617,-4.63867,,,
0.648438,-0.726562,0.417969,30.4565,18.8293,-8.39233,,,
0.683594,-0.703125,0.445312,19.6228,7.75146,-9.09424,,,
0.666016,-0.708984,0.392578,0.305176,-3.50952,-6.50024,,,
0.601562,-0.78125,0.310547,-19.6228,-14.9841,-2.19727,,,
0.447266,-0.908203,0.162109,-17.0288,-18.0969,0.0915527,,,
0.412109,-1.11523,0.119141,-15.7166,-19.8669,2.7771,,,
0.425781,-1.12891,0.0820312,-14.5264,-17.395,3.50952,,,
0.490234,-1.17969,0.0703125,-12.4207,-10.9863,2.92969,,,
0.496094,-1.19531,0.0234375,-16.449,-6.62231,2.71606,,,
0.457031,-1.23438,-0.0664062,-26.7639,-4.27246,2.28882,,,
0.396484,-1.14258,-0.0683594,-41.0156,-3.17383,2.01416,,,
0.369141,-1.06445,-0.0996094,-53.5278,-4.88281,2.31934,,,
0.306641,-0.974609,-0.09375,-61.3403,-6.95801,2.83813,,,
0.304688,-0.962891,-0.0410156,-63.9648,-7.2937,3.479,,,
0.255859,-0.96875,-0.0332031,-60.2722,-7.62939,3.02124,,,
0.240234,-0.953125,0.0117188,-52.8564,-9.06372,2.0752,,,
0.216797,-0.941406,0.0371094,-44.7998,-11.4441,1.46484,,,
0.216797,-0.919922,0.113281,-39.7949,-14.3433,1.49536,,,
0.158203,-0.916016,0.140625,-35.9802,-16.9373,1.70898,,,
0.125,-0.890625,0.113281,-36.4075,-18.158,2.50244,,,
0.144531,-0.787109,0.25,-0.0610352,-15.9302,-2.65503,,,
0.134766,-0.837891,0.236328,2.47192,-16.4185,-4.57764,,,
0.189453,-0.882812,0.236328,5.82886,-17.6392,-6.43921,,,
0.238281,-0.929688,0.234375,8.02612,-18.158,-7.8125,,,
0.302734,-0.888672,0.275391,9.33838,-16.8762,-9.18579,,,
0.292969,-0.90625,0.265625,9.0332,-14.9841,-10.1624,,,
0.265625,-0.917969,0.220703,8.27026,-15.7166,-9.8877,,,
0.248047,-1.00195,0.271484,5.0354,-19.5618,-7.56836,,,
0.240234,-1.09375,0.285156,5.67627,-21.6064,-4.05884,,,
0.285156,-1.15625,0.285156,15.2588,-19.6228,0.0610352,,,
0.421875,-1.2168,0.269531,20.0195,-18.0664,3.08228,,,
0.527344,-1.23438,0.183594,22.8577,-14.8621,4.24194,,,
0.513672,-1.20703,0.0390625,16.2659,-7.01904,3.8147,,,
0.458984,-1.14453,-0.0390625,6.13403,2.41089,2.71606,,,
0.453125,-1.04297,-0.0859375,0.88501,9.61304,1.80054,,,
0.419922,-0.960938,-0.0117188,0,12.9089,1.31226,,,
0.417969,-0.904297,0.0195312,1.61743,10.0708,1.0376,,,
0.40625,-0.841797,0.046875,2.47192,4.08936,2.44141,,,
0.433594,-0.841797,0.0351562,2.56348,-1.95312,5.27954,,,
0.445312,-0.861328,0.0800781,-0.244141,-7.14111,7.84302,,,
0.46875,-0.851562,0.113281,-4.69971,-9.46045,9.00269,,,
0.484375,-0.847656,0.109375,-8.3313,-9.21631,9.0332,,,
0.482422,-0.859375,0.115234,-12.085,-7.99561,9.21631,,,
0.443359,-0.861328,0.0917969,-16.6931,-6.95801,10.6201,,,
0.431641,-0.84375,0.0859375,-21.3623,-6.74438,12.3901,,,
0.423828,-0.816406,0.078125,-27.3438,-7.23267,14.1602,,,
0.417969,-0.791016,0.0683594,-32.2876,-7.72095,16.1438,,,
0.404297,-0.779297,0.111328,-36.6516,-8.27026,17.9443,,,
0.378906,-0.769531,0.0976562,-40.0696,-8.3313,19.4397,,,
0.386719,-0.748047,0.0957031,-41.9617,-8.42285,20.1721,,,
0.386719,-0.710938,0.144531,-43.335,-9.79614,20.874,,,
0.423828,-0.703125,0.15625,-44.7693,-12.207,21.5759,,,
0.425781,-0.857422,0.220703,-61.9507,-26.001,22.0947,,,
0.392578,-0.853516,0.265625,-63.3545,-28.5645,22.1863,,,
0.367188,-0.894531,0.271484,-63.324,-31.9519,22.2168,,,
0.369141,-0.960938,0.271484,-63.1714,-35.1257,21.7285,,,
0.320312,-1.0332,0.199219,-65.8875,-36.1023,22.0032,,,
0.302734,-1.13477,0.150391,-69.5496,-32.7454,23.6206,,,
0.273438,-1.17578,0.103516,-71.6553,-26.6724,25.2686,,,
0.263672,-1.14844,0.0859375,-73.8525,-18.1274,25.6958,,,
0.226562,-1.08398,0.078125,-73.0591,-9.97925,23.9258,,,
0.240234,-0.972656,0.121094,-68.8171,-6.13403,20.9351,,,
0.216797,-0.896484,0.167969,-64.6667,-5.06592,18.0969,,,
0.136719,-0.857422,0.207031,-58.2275,-7.47681,15.9912,,,
0.111328,-0.869141,0.214844,-52.0325,-11.0474,14.8926,,,
0.0625,-0.851562,0.210938,-46.4478,-15.2893,14.7705,,,
0.078125,-0.880859,0.197266,-41.3208,-17.9138,15.4114,,,
0.126953,-0.880859,0.191406,-39.2151,-18.3105,16.0828,,,
0.173828,-0.910156,0.171875,-40.0391,-17.7307,16.51,,,
0.171875,-0.917969,0.164062,-41.5344,-15.9302,16.2964,,,
0.160156,-0.925781,0.175781,-42.0227,-14.2822,15.5945,,,
0.169922,-0.925781,0.208984,-39.978,-12.8174,14.1296,,,
0.140625,-0.917969,0.207031,-36.2549,-11.2915,11.7493,,,
0.148438,-0.917969,0.1875,-32.4097,-10.0098,9.09424,,,
0.126953,-0.929688,0.226562,-28.9612,-9.21631,7.26318,,,
0.136719,-0.914062,0.228516,-26.4893,-8.60596,6.56128,,,
0.146484,-0.921875,0.21875,-24.0173,-8.3313,6.10352,,,
0.152344,-0.910156,0.236328,-20.4163,-8.30078,5.49316,,,
0.154297,-0.925781,0.248047,-16.9678,-7.75146,4.54712,,,
0.140625,-0.931641,0.275391,-14.0991,-7.1106,3.57056,,,
0.179688,-0.916016,0.244141,-11.9324,-5.95093,2.89917,,,
0.183594,-0.929688,0.226562,-10.7422,-4.05884,2.41089,,,
0.162109,-0.925781,0.248047,-10.2844,-2.22778,1.70898,,,
0.160156,-0.931641,0.232422,-8.69751,-0.640869,1.09863,,,
0.230469,-0.916016,0.248047,-6.95801,2.86865,-0.366211,,,
0.25,-0.896484,0.242188,-7.72095,2.28882,0.244141,,,
0.242188,-0.896484,0.214844,-8.75854,1.98364,0.88501,,,
0.269531,-0.90625,0.226562,-9.70459,1.92261,1.61743,,,
0.253906,-0.927734,0.228516,-11.0474,2.50244,2.41089,,,
0.253906,-0.931641,0.242188,-11.3525,3.08228,3.14331,,,
0.269531,-0.902344,0.222656,-10.3455,2.83813,3.08228,,,
0.265625,-0.888672,0.246094,-9.552,2.34985,2.89917,,,
0.275391,-0.873047,0.232422,-9.42993,1.34277,2.96021,,,
0.279297,-0.859375,0.244141,-10.1318,-0.152588,3.14331,,,
0.267578,-0.857422,0.236328,-11.2,-2.22778,3.93677,,,
0.253906,-0.855469,0.222656,-12.2375,-4.21143,4.66919,,,
0.257812,-0.869141,0.226562,-13.1226,-5.40161,5.15747,,,
0.263672,-0.867188,0.226562,-13.4583,-5.95093,5.40161,,,
0.283203,-0.882812,0.21875,-13.8245,-6.5918,5.46265,,,
0.275391,-0.871094,0.224609,-13.3057,-6.65283,5.37109,,,
0.285156,-0.869141,0.234375,-13.3972,-6.13403,5.43213,,,
0.28125,-0.871094,0.238281,-14.2517,-5.37109,5.09644,,,
0.296875,-0.884766,0.234375,-16.6931,-4.5166,5.31006,,,
0.287109,-0.919922,0.205078,-19.6228,-3.11279,5.85938,,,
0.28125,-0.988281,0.205078,-21.3928,-1.37329,6.50024,,,
0.298828,-0.962891,0.246094,-22.7356,1.77002,6.92749,,,
0.285156,-0.947266,0.242188,-22.7661,5.12695,7.08008,,,
0.296875,-0.9375,0.242188,-21.3623,7.65991,6.83594,,,
0.289062,-0.882812,0.228516,-19.8669,10.1318,6.40869,,,
0.302734,-0.875,0.226562,-18.7683,12.0239,5.67627,,,
0.28125,-0.855469,0.220703,-17.395,13.5193,4.73022,,,
0.289062,-0.90625,0.248047,-15.9607,14.2212,3.57056,,,
0.298828,-0.927734,0.253906,-14.2212,15.3503,1.95312,,,
0.341797,-0.90625,0.279297,-13.9465,16.1438,0.427246,,,
0.369141,-0.898438,0.265625,-15.2588,16.449,-0.488281,,,
0.390625,-0.888672,0.25,-16.1133,15.1367,-1.28174,,,
,,,,,,2017-4-3	17:5:19,30,0
0.285156,-0.824219,0.273438,-22.3999,16.6626,5.00488,,,
0.300781,-0.837891,0.302734,-18.7988,16.9373,5.61523,,,
0.291016,-0.810547,0.308594,-15.1062,16.1438,5.46265,,,
0.328125,-0.789062,0.294922,-12.3596,15.2893,4.79126,,,
0.316406,-0.785156,0.300781,-10.498,14.4348,4.66919,,,
0.310547,-0.802734,0.277344,-9.33838,13.2446,5.09644,,,
0.324219,-0.810547,0.25,-7.90405,11.8408,5.61523,,,
0.332031,-0.814453,0.261719,-6.74438,10.7727,5.92041,,,
0.330078,-0.804688,0.259766,-5.7373,9.82666,5.85938,,,
0.316406,-0.832031,0.269531,-4.05884,9.00269,5.79834,,,
0.339844,-0.841797,0.265625,-1.77002,8.5144,6.04248,,,
0.339844,-0.828125,0.25,0.762939,7.99561,6.40869,,,
0.335938,-0.824219,0.25,4.3335,6.01196,6.92749,,,
0.314453,-0.833984,0.292969,6.68335,1.95312,7.26318,,,
0.355469,-0.804688,0.28125,4.66919,-3.60107,8.23975,,,
0.392578,-0.791016,0.306641,5.46265,-9.24683,9.06372,,,
0.419922,-0.822266,0.294922,5.0354,-17.334,10.3149,,,
0.447266,-0.902344,0.296875,-1.52588,-22.4304,10.3149,,,
0.472656,-1.04297,0.195312,-8.02612,-22.4304,9.552,,,
0.439453,-1.23828,0.136719,-12.97,-21.5149,8.81958,,,
0.431641,-1.37695,0.0585938,-18.5242,-16.0217,9.00269,,,
0.367188,-1.48438,-0.00195312,-20.874,-6.01196,8.88062,,,
0.378906,-1.39453,-0.0429688,-21.7896,1.67847,6.34766,,,
0.375,-1.19922,-0.0136719,-20.5994,3.41797,2.86865,,,
0.333984,-1.06055,0.015625,-23.2239,2.99072,1.43433,,,
0.255859,-1.03125,0.0429688,-27.0691,1.64795,1.67847,,,
0.195312,-0.994141,0.0546875,-24.8413,-0.335693,1.67847,,,
0.183594,-0.962891,0.0429688,-23.4985,0.701904,1.06812,,,
0.158203,-0.962891,0.0253906,-20.8435,1.25122,-0.244141,,,
0.195312,-0.878906,0.0664062,-19.4092,3.08228,-1.40381,,,
0.222656,-0.853516,0.0878906,-20.05,4.69971,-1.61743,,,
0.144531,-0.779297,0.0488281,-19.2261,6.34766,-1.92261,,,
0.158203,-0.849609,0.298828,32.3792,1.43433,-10.2844,,,
0.191406,-0.851562,0.306641,36.2854,-2.34985,-10.5591,,,
0.306641,-0.84375,0.283203,41.1987,-5.64575,-13.3057,,,
0.292969,-0.880859,0.228516,43.7317,-7.01904,-16.3269,,,
0.255859,-0.921875,0.236328,42.2668,-4.91333,-16.9983,,,
0.203125,-0.957031,0.242188,40.863,-2.10571,-16.4185,,,
0.189453,-0.949219,0.267578,45.2271,-1.58691,-16.449,,,
0.195312,-0.988281,0.302734,56.0913,-1.77002,-15.7776,,,
0.265625,-1.12305,0.322266,66.1621,0.640869,-12.97,,,
0.378906,-1.2207,0.224609,78.0029,3.08228,-11.7798,,,
0.501953,-1.30078,0.0859375,86.7004,11.7798,-12.7869,,,
0.568359,-1.30273,-0.0566406,84.7473,22.4304,-15.0452,,,
0.603516,-1.3125,-0.101562,70.4346,31.0669,-15.5029,,,
0.509766,-1.20703,-0.0800781,52.5513,39.7339,-12.6648,,,
0.46875,-1.05859,0.0078125,34.8816,39.9475,-7.32422,,,
0.40625,-0.917969,0.111328,30.0903,31.7688,-2.2583,,,
0.433594,-0.798828,0.179688,33.7219,24.2004,-0.793457,,,
0.449219,-0.697266,0.207031,39.5508,17.5781,-2.0752,,,
0.460938,-0.636719,0.195312,45.0439,12.4512,-4.21143,,,
0.462891,-0.646484,0.181641,46.2036,9.58252,-5.00488,,,
0.416016,-0.681641,0.0625,41.9617,9.39941,-4.18091,,,
0.382812,-0.667969,-0.03125,34.0881,10.8643,-1.77002,,,
0.386719,-0.666016,-0.0390625,22.9187,13.1226,0.732422,,,
0.375,-0.673828,-0.0273438,12.3596,14.9231,2.89917,,,
0.390625,-0.648438,0.00390625,6.40869,15.2893,3.78418,,,
0.404297,-0.628906,0.0527344,3.05176,14.1602,3.84521,,,
0.417969,-0.658203,0.132812,2.99072,12.3291,3.44849,,,
0.419922,-0.693359,0.158203,3.02124,11.0474,3.20435,,,
0.464844,-0.765625,0.201172,-2.59399,10.8337,3.11279,,,
0.464844,-0.808594,0.171875,-6.98853,9.06372,3.69263,,,
0.494141,-0.833984,0.191406,-11.2915,5.58472,3.87573,,,
0.527344,-0.849609,0.240234,-15.3503,0.366211,2.7771,,,
0.416016,-1.08789,0.308594,-43.8843,-47.821,-5.67627,,,
0.380859,-1.20508,0.208984,-41.4429,-48.7366,-4.76074,,,
0.339844,-1.23242,0.00390625,-42.4805,-44.9524,-2.41089,,,
0.314453,-1.20898,-0.150391,-46.7529,-34.0271,0.366211,,,
0.255859,-1.23047,-0.193359,-55.542,-21.1792,2.2583,,,
0.236328,-1.19141,-0.119141,-60.9436,-9.64355,1.98364,,,
0.189453,-1.17578,0.0429688,-56.366,-0.854492,0.183105,,,
0.177734,-1.16016,0.136719,-48.2483,2.01416,-1.28174,,,
0.138672,-1.21875,0.216797,-38.5437,1.70898,0.335693,,,
0.113281,-1.16992,0.220703,-30.4871,0.915527,5.06592,,,
0.109375,-1.0957,0.203125,-26.4282,0.610352,10.1624,,,
0.111328,-1.01172,0.164062,-25.5737,0.518799,12.9089,,,
0.144531,-0.923828,0.142578,-26.5198,2.0752,11.9934,,,
0.181641,-0.798828,0.136719,-27.771,4.3335,8.27026,,,
0.207031,-0.671875,0.109375,-27.71,4.73022,4.11987,,,
0.179688,-0.589844,0.132812,-27.5269,6.073,0.640869,,,
0.181641,-0.578125,0.101562,-26.5198,6.74438,-2.31934,,,
0.154297,-0.609375,0.148438,-24.4446,5.92041,-4.21143,,,
0.121094,-0.621094,0.166016,-20.874,4.11987,-5.15747,,,
0.0761719,-0.646484,0.224609,-15.5029,2.22778,-6.19507,,,
0.0644531,-0.667969,0.226562,-9.12476,1.00708,-6.56128,,,
0.0859375,-0.738281,0.257812,-1.52588,-0.152588,-6.74438,,,
0.0878906,-0.810547,0.292969,7.32422,-1.19019,-7.78198,,,
0.126953,-0.875,0.337891,14.8621,-2.34985,-9.82666,,,
0.183594,-0.921875,0.345703,17.7917,-4.60815,-11.5051,,,
0.193359,-1,0.337891,19.4397,-7.04956,-11.8408,,,
0.259766,-0.992188,0.341797,17.0898,-7.87354,-11.2,,,
0.296875,-0.953125,0.318359,13.6719,-9.64355,-10.6201,,,
0.28125,-0.941406,0.341797,8.94165,-12.6648,-8.72803,,,
0.310547,-0.970703,0.363281,7.53784,-17.9138,-5.09644,,,
0.328125,-1.09766,0.378906,13.6719,-19.5312,-1.43433,,,
0.369141,-1.1875,0.353516,21.6675,-15.8081,1.52588,,,
0.416016,-0.876953,0.205078,10.6812,0.457764,15.3809,,,
0.460938,-0.851562,0.201172,10.3149,1.12915,14.74,,,
0.419922,-0.832031,0.167969,7.72095,3.8147,14.6179,,,
0.380859,-0.8125,0.107422,3.44849,7.01904,15.9607,,,
0.353516,-0.78125,0.078125,-3.02124,9.52148,18.158,,,
0.316406,-0.726562,0.0859375,-8.97217,11.6272,20.1416,,,
0.300781,-0.712891,0.0371094,-12.7258,14.74,21.0571,,,
0.273438,-0.654297,0.0898438,-14.1907,18.1274,20.3857,,,
0.291016,-0.638672,0.109375,-13.4888,19.6228,18.158,,,
0.296875,-0.646484,0.144531,-11.0168,19.8669,15.7776,,,
0.316406,-0.634766,0.214844,-7.90405,19.104,13.3362,,,
0.328125,-0.675781,0.220703,-6.01196,17.1204,11.4441,,,
0.345703,-0.689453,0.259766,-5.49316,13.6719,9.3689,,,
0.373047,-0.726562,0.292969,-7.59888,9.15527,7.47681,,,
0.408203,-0.722656,0.300781,-12.4207,3.479,5.21851,,,
0.441406,-0.767578,0.251953,-19.043,-3.54004,3.26538,,,
0.419922,-0.826172,0.263672,-27.4658,-9.12476,2.96021,,,
0.376953,-0.845703,0.251953,-33.2642,-12.2986,3.57056,,,
0.335938,-0.871094,0.248047,-34.2712,-17.2119,4.27246,,,
0.345703,-0.875,0.283203,-33.6914,-26.4587,3.14331,,,
0.359375,-0.880859,0.34375,-31.8298,-38.6353,1.52588,,,
0.355469,-1.03711,0.388672,-30.4565,-49.6521,0,,,
0.302734,-1.23047,0.353516,-25.9399,-49.8657,-1.95312,,,
0.308594,-1.33203,0.179688,-24.1394,-36.8652,-2.13623,,,
0.318359,-1.36719,-0.0917969,-24.8108,-17.8223,-1.19019,,,
0.339844,-1.28516,-0.238281,-28.8086,-1.46484,-1.67847,,,
0.306641,-1.19727,-0.265625,-30.8533,5.82886,-4.24194,,,
0.289062,-1.13867,-0.142578,-29.8767,6.34766,-7.47681,,,
0.296875,-1.12305,0.0410156,-32.074,2.13623,-9.0332,,,
0.302734,-1.0957,0.148438,-35.7361,-4.02832,-5.43213,,,
0.203125,-1.21484,0.205078,-36.4075,-7.08008,0.610352,,,
0.175781,-1.26953,0.199219,-32.9895,-5.27954,4.05884,,,
0.103516,-0.601562,0.203125,-20.9656,3.50952,-8.23975,,,
0.123047,-0.630859,0.197266,-19.165,0.701904,-7.56836,,,
0.140625,-0.632812,0.214844,-17.8528,-0.640869,-6.95801,,,
0.117188,-0.685547,0.236328,-14.3738,-1.67847,-7.35474,,,
0.144531,-0.755859,0.277344,-11.2,-3.20435,-8.5144,,,
0.160156,-0.851562,0.287109,-4.5166,-4.91333,-9.33838,,,
0.181641,-0.96875,0.292969,1.2207,-7.23267,-8.27026,,,
0.183594,-1.01953,0.339844,-0.457764,-10.0708,-4.66919,,,
0.238281,-0.992188,0.326172,0.335693,-10.498,-2.44141,,,
0.289062,-0.927734,0.34375,1.09863,-12.085,-4.08936,,,
0.287109,-1.02734,0.347656,2.89917,-15.2283,-5.12695,,,
0.369141,-1.1582,0.34375,7.69043,-17.334,-2.0752,,,
0.472656,-1.32617,0.279297,15.8997,-19.2261,3.78418,,,
0.570312,-1.37695,0.130859,17.9749,-22.5525,9.73511,,,
0.548828,-1.23242,-0.0136719,8.91113,-20.2942,11.7798,,,
0.501953,-1.13086,-0.134766,-6.43921,-9.00269,8.69751,,,
0.466797,-1.08398,-0.107422,-14.0381,1.0376,6.16455,,,
0.408203,-1.05664,0.0234375,-7.75146,5.79834,5.00488,,,
0.425781,-1.01367,0.113281,2.89917,7.08008,5.7373,,,
0.416016,-1.04492,0.144531,10.6506,6.53076,7.72095,,,
0.4375,-1.03906,0.109375,12.146,5.21851,9.97925,,,
0.457031,-1.00977,0.134766,7.04956,4.94385,11.3525,,,
0.435547,-0.921875,0.152344,0.0915527,5.95093,12.8784,,,
0.376953,-0.816406,0.105469,-4.45557,7.32422,15.2893,,,
0.363281,-0.697266,0.0761719,-7.38525,9.52148,16.4795,,,
0.365234,-0.654297,0.0742188,-10.1013,11.261,16.8457,,,
0.314453,-0.625,0.0527344,-12.4207,12.6038,16.3879,,,
0.314453,-0.601562,0.046875,-14.5264,14.3738,15.564,,,
0.339844,-0.599609,0.0761719,-16.2964,15.9607,14.4958,,,
0.322266,-0.619141,0.115234,-17.8528,16.8457,13.855,,,
0.285156,-0.630859,0.113281,-19.3787,17.6086,13.2141,,,
0.294922,-0.601562,0.144531,-19.7449,17.4866,12.2375,,,
0.333984,-0.921875,0.240234,-31.0974,-46.936,3.66211,,,
0.328125,-1.14844,0.287109,-30.3345,-58.7769,5.18799,,,
0.306641,-1.25781,0.287109,-22.644,-62.1948,3.72314,,,
0.390625,-1.39453,0.109375,-22.0642,-49.3164,2.62451,,,
0.386719,-1.43359,-0.0957031,-25.0549,-29.6631,3.66211,,,
0.306641,-1.44141,-0.222656,-28.5339,-14.5874,4.97437,,,
0.289062,-1.38672,-0.228516,-28.0762,-4.39453,3.14331,,,
0.3125,-1.24805,-0.103516,-25.8789,-1.7395,-0.762939,,,
0.328125,-1.11719,0.0195312,-25.0854,-5.15747,-2.22778,,,
0.302734,-1.11328,0.105469,-25.7874,-11.4746,-0.0305176,,,
0.244141,-1.12891,0.183594,-26.9775,-14.7705,4.54712,,,
0.171875,-1.15234,0.158203,-27.3743,-14.5874,7.8125,,,
0.15625,-1.08203,0.150391,-26.2146,-11.5051,8.3313,,,
0.179688,-0.964844,0.0976562,-23.3154,-7.04956,6.37817,,,
0.160156,-0.818359,0.113281,-18.28,-2.86865,2.59399,,,
0.167969,-0.740234,0.103516,-13.916,0.610352,-1.31226,,,
0.154297,-0.628906,0.134766,-9.79614,4.18091,-4.27246,,,
0.09375,-0.603516,0.125,-7.87354,5.58472,-5.31006,,,
0.103516,-0.587891,0.113281,-8.27026,5.58472,-3.84521,,,
0.0742188,-0.578125,0.152344,-7.53784,2.99072,-1.12915,,,
0.0800781,-0.599609,0.140625,-4.54712,-0.701904,1.5564,,,
0.0820312,-0.654297,0.214844,0.549316,-4.54712,2.89917,,,
0.101562,-0.6875,0.255859,7.32422,-7.1106,1.89209,,,
0.148438,-0.710938,0.328125,14.1296,-7.08008,-0.335693,,,
0.136719,-0.800781,0.328125,17.0898,-6.04248,-1.95312,,,
0.152344,-0.859375,0.300781,16.9983,-5.64575,-1.12915,,,
0.0957031,-0.921875,0.271484,15.2588,-5.5542,2.59399,,,
0.0820312,-0.998047,0.240234,15.1367,-5.82886,5.92041,,,
0.140625,-0.923828,0.302734,16.571,-8.42285,6.71387,,,
0.205078,-0.869141,0.328125,24.4141,-14.5264,5.21851,,,
0.220703,-0.898438,0.357422,32.7454,-15.8081,2.83813,,,
0.375,-1.01953,0.390625,42.9382,-14.1296,1.89209,,,
,,,,,,2017-4-3	17:5:24,30,0
0.416016,-0.820312,0.234375,18.9819,18.4326,-2.0752,,,
0.410156,-0.863281,0.179688,26.4282,14.2822,-4.30298,,,
0.466797,-0.935547,0.140625,26.062,13.9771,-5.40161,,,
0.464844,-0.925781,0.078125,20.9656,17.8223,-5.21851,,,
0.447266,-0.904297,0.0488281,13.7329,22.583,-4.42505,,,
0.449219,-0.824219,0.0332031,6.62231,25.0549,-3.72314,,,
0.410156,-0.771484,0.0390625,2.10571,24.1089,-2.50244,,,
0.40625,-0.738281,0.0898438,-1.7395,21.6064,-1.15967,,,
0.400391,-0.779297,0.0644531,-5.61523,18.7073,0.396729,,,
0.390625,-0.732422,0.0546875,-9.46045,16.2659,3.20435,,,
0.414062,-0.716797,0.078125,-13.5498,13.6719,5.98145,,,
0.412109,-0.677734,0.0488281,-16.6931,10.7422,8.14819,,,
0.423828,-0.642578,0.113281,-18.8599,6.68335,9.85718,,,
0.382812,-0.634766,0.0957031,-19.989,1.67847,11.6577,,,
0.404297,-0.650391,0.121094,-21.3013,-3.14331,14.1296,,,
0.378906,-0.703125,0.103516,-22.7661,-6.74438,16.7542,,,
0.396484,-0.798828,0.121094,-24.6582,-8.66699,19.9585,,,
0.345703,-0.892578,0.109375,-27.2522,-8.11768,23.3154,,,
0.314453,-0.960938,0.107422,-28.595,-5.37109,26.1841,,,
0.339844,-0.929688,0.154297,-26.5808,-3.20435,27.1606,,,
0.320312,-0.896484,0.148438,-22.4609,-3.93677,26.7029,,,
0.314453,-0.914062,0.185547,-16.9983,-8.14819,24.3225,,,
0.310547,-1.00195,0.208984,-12.6648,-10.2234,21.8201,,,
0.291016,-1.20312,0.203125,-10.7422,-10.1318,18.7073,,,
0.259766,-1.17188,0.125,-9.39941,-6.50024,14.9536,,,
0.25,-1.10547,0.078125,-8.5144,-0.366211,12.6038,,,
0.240234,-1.04297,0.0332031,-7.50732,3.93677,9.64355,,,
0.240234,-0.943359,0.03125,-7.75146,5.46265,5.67627,,,
0.203125,-0.912109,0.0546875,-6.46973,5.06592,1.70898,,,
0.134766,-0.929688,0.0878906,-0.305176,4.94385,-1.46484,,,
0.0683594,-0.992188,0.0878906,6.16455,6.92749,-2.28882,,,
0.0273438,-1.08008,0.107422,14.0686,9.61304,-2.31934,,,
0.109375,-0.976562,0.146484,68.634,33.3557,-14.2212,,,
0.113281,-0.939453,0.164062,70.6787,35.6445,-13.3362,,,
0.0996094,-0.931641,0.208984,75.0122,35.7666,-15.2283,,,
0.128906,-0.869141,0.248047,80.5359,34.0881,-20.1721,,,
0.152344,-0.828125,0.228516,85.2356,31.5247,-27.3743,,,
0.152344,-0.785156,0.232422,92.2852,28.8086,-34.3933,,,
0.152344,-0.871094,0.246094,102.142,28.595,-39.856,,,
0.146484,-0.910156,0.230469,112.152,32.1045,-43.2739,,,
0.169922,-0.964844,0.201172,120.087,36.9873,-44.3115,,,
0.212891,-0.972656,0.214844,123.566,41.687,-42.8467,,,
0.275391,-0.978516,0.185547,123.138,43.6096,-40.4053,,,
0.318359,-0.914062,0.179688,125.61,43.8538,-38.3301,,,
0.398438,-0.888672,0.179688,121.979,44.5557,-37.2925,,,
0.501953,-0.820312,0.191406,117.645,43.5486,-36.2244,,,
0.583984,-0.841797,0.179688,112.823,42.0532,-35.1257,,,
0.630859,-0.841797,0.126953,103.302,40.5884,-32.5012,,,
0.630859,-0.824219,0.0722656,89.4775,39.5203,-27.3743,,,
0.615234,-0.824219,0.0683594,75.7446,37.5671,-20.6299,,,
0.589844,-0.822266,0.113281,64.209,32.2266,-15.5029,,,
0.585938,-0.798828,0.175781,56.9458,25.6653,-13.8855,,,
0.582031,-0.763672,0.226562,53.9246,19.8364,-13.4583,,,
0.556641,-0.806641,0.257812,55.3894,16.1743,-11.7188,,,
0.462891,-0.835938,0.271484,59.4788,14.5569,-9.42993,,,
0.408203,-0.826172,0.261719,62.9272,14.1602,-8.08716,,,
0.412109,-0.804688,0.234375,64.209,14.2517,-8.17871,,,
0.408203,-0.800781,0.238281,63.9038,14.1296,-9.33838,,,
0.458984,-0.832031,0.199219,59.906,14.5874,-9.79614,,,
0.472656,-0.841797,0.189453,52.1545,15.9912,-9.27734,,,
0.480469,-0.869141,0.177734,47.4548,17.334,-8.60596,,,
0.496094,-0.873047,0.173828,44.0369,18.7378,-8.88062,,,
0.480469,-0.847656,0.177734,42.3279,20.5688,-9.39941,,,
0.458984,-0.845703,0.199219,42.6941,22.6746,-9.73511,,,
0.457031,-0.902344,0.189453,46.7834,34.5764,-7.41577,,,
0.445312,-0.847656,0.216797,44.1589,34.6069,-7.14111,,,
0.441406,-0.853516,0.201172,41.5344,34.4543,-6.073,,,
0.421875,-0.814453,0.216797,39.1846,33.4778,-4.18091,,,
0.400391,-0.835938,0.210938,38.269,31.3416,-1.80054,,,
0.412109,-0.806641,0.203125,37.9639,28.6865,0.0610352,,,
0.416016,-0.822266,0.236328,37.1094,26.3367,2.41089,,,
0.447266,-0.787109,0.199219,34.2102,24.4446,4.54712,,,
0.445312,-0.822266,0.205078,29.48,22.0032,6.40869,,,
0.449219,-0.816406,0.169922,25.0244,19.6533,7.75146,,,
0.492188,-0.837891,0.164062,20.6299,17.334,8.11768,,,
0.486328,-0.833984,0.1875,16.9678,15.3198,7.87354,,,
0.46875,-0.816406,0.1875,13.9465,13.5193,7.59888,,,
0.455078,-0.818359,0.208984,11.7188,11.9629,8.02612,,,
0.431641,-0.814453,0.208984,9.94873,10.3455,8.23975,,,
0.417969,-0.791016,0.197266,9.24683,7.87354,7.78198,,,
0.421875,-0.757812,0.236328,9.30786,4.76074,6.53076,,,
0.398438,-0.744141,0.240234,11.3831,1.0376,4.54712,,,
0.390625,-0.724609,0.248047,13.3362,-3.38745,2.80762,,,
0.421875,-0.751953,0.236328,14.4348,-7.69043,1.31226,,,
0.394531,-0.798828,0.220703,12.3291,-11.6272,-0.213623,,,
0.402344,-0.855469,0.164062,7.32422,-13.5803,-0.976562,,,
0.359375,-0.929688,0.125,3.17383,-13.1531,-1.43433,,,
0.371094,-0.978516,0.107422,0.0915527,-12.207,-2.38037,,,
0.359375,-1.00781,0.09375,0.335693,-11.9019,-4.45557,,,
0.349609,-1.01562,0.0898438,2.53296,-10.8643,-6.80542,,,
0.347656,-1.0625,0.078125,4.5166,-8.27026,-8.05664,,,
0.326172,-1.04102,0.0371094,2.59399,-4.88281,-8.20923,,,
0.359375,-1.0957,0.00195312,-2.80762,0.213623,-7.84302,,,
0.314453,-1.10156,-0.0253906,-9.12476,5.21851,-7.41577,,,
0.306641,-1.11328,-0.0175781,-12.7258,9.94873,-6.80542,,,
0.302734,-1.0918,-0.0136719,-11.8713,12.3901,-6.22559,,,
0.257812,-0.841797,0.0742188,-3.08228,13.0005,-5.06592,,,
0.25,-0.837891,0.0722656,-2.56348,12.5427,-6.01196,,,
0.230469,-0.900391,0.123047,-1.61743,10.9558,-6.04248,,,
0.222656,-0.931641,0.119141,-0.549316,9.76562,-5.34058,,,
0.230469,-0.9375,0.105469,0.0305176,9.64355,-4.69971,,,
0.240234,-0.910156,0.117188,1.25122,9.00269,-4.42505,,,
0.261719,-0.923828,0.0957031,2.38037,8.45337,-4.30298,,,
0.261719,-0.890625,0.123047,2.71606,8.02612,-3.75366,,,
0.277344,-0.933594,0.101562,2.31934,8.39233,-2.44141,,,
0.289062,-0.9375,0.109375,0.88501,8.39233,-1.00708,,,
0.330078,-0.921875,0.0957031,-1.00708,6.89697,-0.183105,,,
0.332031,-0.910156,0.103516,-3.50952,5.31006,-0.0610352,,,
0.291016,-0.921875,0.103516,-5.0354,4.08936,-0.213623,,,
0.283203,-0.921875,0.113281,-6.2561,3.11279,0.0610352,,,
0.253906,-0.9375,0.121094,-7.08008,2.41089,1.00708,,,
0.267578,-0.90625,0.117188,-7.44629,1.28174,2.62451,,,
0.273438,-0.888672,0.136719,-6.19507,-0.640869,3.75366,,,
0.25,-0.90625,0.134766,-5.43213,-2.41089,4.60815,,,
0.25,-0.900391,0.152344,-5.7373,-4.57764,5.88989,,,
0.269531,-0.886719,0.160156,-6.34766,-7.04956,6.98853,,,
0.240234,-0.867188,0.177734,-6.98853,-9.49097,8.08716,,,
0.25,-0.875,0.138672,-6.7749,-12.0239,9.67407,,,
0.234375,-0.886719,0.125,-5.12695,-14.801,11.0168,,,
0.238281,-0.914062,0.185547,-3.35693,-17.7307,12.3901,,,
0.310547,-0.966797,0.169922,-1.95312,-20.3247,13.1226,,,
0.314453,-0.974609,0.132812,-0.213623,-22.1252,13.1836,,,
0.394531,-1.05859,0.0917969,-2.38037,-20.1721,12.6648,,,
0.425781,-1.04492,0.0449219,-12.7563,-18.3411,10.6812,,,
0.453125,-1.0332,0.0605469,-25.0244,-15.3198,9.12476,,,
0.396484,-1.00195,0.0234375,-34.9121,-14.2517,10.2539,,,
0.330078,-0.988281,0.0292969,-36.6516,-15.5029,13.1226,,,
0.263672,-0.982422,0.0664062,-29.7241,-17.8528,15.1062,,,
0.460938,-0.882812,0,-35.2173,-6.34766,14.1907,,,
0.4375,-0.833984,0.0898438,-40.5884,-11.5662,15.7471,,,
0.449219,-0.804688,0.107422,-45.105,-16.0828,14.74,,,
0.451172,-0.8125,0.126953,-47.8516,-20.2942,12.8479,,,
0.453125,-0.818359,0.132812,-53.0396,-23.6206,12.3596,,,
0.400391,-0.847656,0.119141,-59.1431,-24.353,13.4583,,,
0.388672,-0.902344,0.0976562,-65.6433,-23.5596,14.4653,,,
0.363281,-0.876953,0.115234,-70.7092,-21.4539,15.1062,,,
0.365234,-0.851562,0.128906,-71.8689,-17.7612,15.9302,,,
0.355469,-0.835938,0.134766,-72.3572,-15.8386,16.6016,,,
0.34375,-0.814453,0.183594,-74.6155,-15.6555,17.0593,,,
0.363281,-0.794922,0.1875,-80.1086,-16.6626,17.5781,,,
0.333984,-0.798828,0.240234,-87.8906,-17.8833,18.7988,,,
0.335938,-0.761719,0.275391,-90.6982,-21.1182,20.4468,,,
0.345703,-0.751953,0.3125,-91.2476,-26.7029,20.6299,,,
0.392578,-0.779297,0.353516,-90.9729,-32.9895,20.4773,,,
0.355469,-0.800781,0.386719,-92.4377,-40.2832,21.2097,,,
0.359375,-0.855469,0.417969,-92.804,-46.1121,22.0337,,,
0.316406,-0.900391,0.408203,-90.5457,-49.8047,22.1863,,,
0.326172,-0.853516,0.363281,-87.0056,-51.7883,21.1792,,,
0.320312,-0.796875,0.328125,-83.9844,-54.5959,19.4397,,,
0.306641,-0.753906,0.285156,-79.8645,-56.3354,19.928,,,
0.267578,-0.810547,0.224609,-81.8176,-59.4482,23.1628,,,
0.171875,-1.02539,0.232422,-86.792,-62.9578,27.4963,,,
0.115234,-1.1875,0.21875,-84.4727,-60.791,30.2124,,,
0.132812,-1.22266,0.207031,-79.3152,-51.5442,29.9377,,,
0.203125,-1.20898,0.107422,-74.7681,-38.5437,29.3274,,,
0.234375,-1.2168,0.146484,-71.1975,-27.9541,27.2522,,,
0.291016,-1.18164,0.132812,-68.3899,-21.3623,24.7192,,,
0.306641,-1.12109,0.138672,-69.519,-17.8833,24.6887,,,
0.257812,-1.04297,0.0976562,-75.6836,-16.571,28.3203,,,
0.248047,-1.04297,0.0917969,-87.1582,-15.8081,33.2031,,,
0.107422,-0.943359,0.203125,-87.5244,-5.61523,31.2805,,,
0.128906,-0.9375,0.191406,-84.0759,-3.23486,28.9917,,,
0.144531,-0.914062,0.191406,-82.6416,-1.80054,26.4587,,,
0.117188,-0.894531,0.195312,-83.9539,-2.04468,23.8953,,,
0.09375,-0.90625,0.208984,-85.5408,-2.86865,21.8811,,,
0.121094,-0.896484,0.224609,-86.2122,-4.45557,19.9585,,,
0.0976562,-0.871094,0.244141,-85.7239,-6.28662,18.0054,,,
0.0664062,-0.880859,0.255859,-82.489,-7.8125,15.9302,,,
0.0585938,-0.876953,0.267578,-77.3315,-10.1929,14.1907,,,
0.00585938,-0.896484,0.246094,-72.3267,-12.7563,13.031,,,
0.00585938,-0.847656,0.248047,-67.1387,-14.1602,11.6577,,,
-0.0195312,-0.867188,0.269531,-60.8521,-15.9912,9.58252,,,
-0.0507812,-0.824219,0.289062,-53.2227,-17.7917,6.56128,,,
-0.0234375,-0.859375,0.273438,-44.4946,-18.5242,3.17383,,,
-0.0273438,-0.867188,0.255859,-36.1328,-17.1509,-0.488281,,,
0.0585938,-0.828125,0.248047,-28.0151,-16.3574,-5.09644,,,
0.130859,-0.871094,0.238281,-20.1111,-17.0898,-10.2844,,,
0.191406,-0.945312,0.240234,-13.0005,-17.7612,-14.7095,,,
0.238281,-1.07617,0.226562,-8.94165,-14.0076,-15.3198,,,
0.279297,-1.11914,0.230469,-8.97217,-7.99561,-14.2822,,,
0.273438,-1.08789,0.179688,-11.9934,-3.72314,-13.3667,,,
0.289062,-1.0332,0.138672,-17.0288,0.152588,-11.9019,,,
0.261719,-0.994141,0.154297,-21.1487,3.87573,-10.437,,,
0.271484,-0.894531,0.169922,-23.3765,5.52368,-8.97217,,,
0.261719,-0.847656,0.169922,-22.644,5.43213,-8.54492,,,
0.261719,-0.867188,0.189453,-20.5688,3.05176,-8.42285,,,
0.298828,-0.880859,0.205078,-19.104,0.335693,-7.84302,,,
0.289062,-0.902344,0.15625,-18.4021,-2.22778,-6.7749,,,
0.333984,-0.935547,0.181641,-19.7144,-2.65503,-5.31006,,,
0.339844,-0.912109,0.160156,-22.7661,-2.0752,-4.57764,,,
0.341797,-0.919922,0.132812,-24.353,-1.43433,-4.63867,,,
0.339844,-0.908203,0.144531,-24.1089,0.244141,-5.64575,,,
,,,,,,2017-4-3	17:5:29,30,0
0.363281,-0.886719,0.177734,-4.57764,4.76074,-7.90405,,,
0.359375,-0.890625,0.183594,-2.53296,5.49316,-8.11768,,,
0.34375,-0.900391,0.150391,-1.67847,6.10352,-7.41577,,,
0.371094,-0.921875,0.144531,-1.64795,6.13403,-6.40869,,,
0.394531,-0.900391,0.132812,-1.61743,6.04248,-6.01196,,,
0.394531,-0.882812,0.142578,-0.946045,6.073,-5.88989,,,
0.398438,-0.904297,0.138672,-0.762939,5.92041,-5.00488,,,
0.386719,-0.886719,0.117188,-0.579834,5.37109,-3.44849,,,
0.386719,-0.884766,0.142578,-0.518799,4.42505,-2.7771,,,
0.398438,-0.90625,0.109375,-0.549316,4.88281,-2.7771,,,
0.425781,-0.845703,0.109375,-3.05176,5.85938,-2.89917,,,
0.429688,-0.847656,0.0683594,-6.04248,5.85938,-3.26538,,,
0.408203,-0.839844,0.0742188,-9.21631,5.06592,-3.11279,,,
0.457031,-0.822266,0.0976562,-11.6272,3.75366,-3.63159,,,
0.4375,-0.832031,0.117188,-12.7563,2.7771,-4.30298,,,
0.4375,-0.824219,0.107422,-12.5732,1.92261,-4.08936,,,
0.425781,-0.853516,0.177734,-10.7117,1.95312,-2.92969,,,
0.359375,-0.898438,0.128906,-9.33838,2.16675,-1.0376,,,
0.349609,-0.929688,0.136719,-9.30786,2.41089,0.335693,,,
0.349609,-0.916016,0.0878906,-11.2305,2.96021,0.610352,,,
0.371094,-0.912109,0.0449219,-13.2751,3.17383,0.0305176,,,
0.375,-0.876953,0.0761719,-13.6108,3.41797,-1.46484,,,
0.394531,-0.859375,0.115234,-11.4746,3.20435,-3.02124,,,
0.392578,-0.865234,0.150391,-8.17871,3.17383,-3.41797,,,
0.337891,-0.896484,0.169922,-4.18091,4.24194,-3.50952,,,
0.320312,-0.878906,0.15625,-0.946045,4.02832,-3.38745,,,
0.359375,-0.886719,0.148438,1.09863,3.44849,-2.83813,,,
0.408203,-0.90625,0.126953,0.213623,2.89917,-1.77002,,,
0.421875,-0.898438,0.134766,-3.84521,2.56348,-1.43433,,,
0.408203,-0.902344,0.123047,-7.47681,2.44141,-1.00708,,,
0.380859,-0.878906,0.0976562,-7.87354,1.7395,-1.06812,,,
0.371094,-0.886719,0.0625,-6.50024,0.793457,-0.915527,,,
0.388672,-0.933594,0.0585938,-13.4583,9.24683,-30.365,,,
0.435547,-0.900391,0.0957031,-12.1155,10.376,-31.0059,,,
0.425781,-0.873047,0.134766,-8.02612,11.8713,-31.7688,,,
0.400391,-0.867188,0.152344,-1.83105,12.2986,-30.1208,,,
0.386719,-0.863281,0.138672,3.05176,11.5356,-27.1912,,,
0.412109,-0.847656,0.121094,5.7373,9.67407,-24.0784,,,
0.457031,-0.867188,0.09375,5.15747,7.38525,-20.3857,,,
0.460938,-0.851562,0.0839844,5.27954,6.13403,-15.8691,,,
0.470703,-0.847656,0.09375,4.97437,5.79834,-12.7258,,,
0.482422,-0.873047,0.0625,3.72314,7.20215,-11.4441,,,
0.482422,-0.818359,0.0410156,1.67847,9.52148,-11.0168,,,
0.501953,-0.832031,0.0253906,0.732422,10.5896,-9.09424,,,
0.550781,-0.841797,0.0117188,-0.488281,10.3455,-5.98145,,,
0.542969,-0.833984,0.046875,-1.86157,10.0098,-3.11279,,,
0.566406,-0.791016,0.0390625,-3.14331,9.15527,-2.04468,,,
0.585938,-0.759766,0.0410156,-4.57764,7.50732,-1.0376,,,
0.576172,-0.759766,0.03125,-5.09644,4.97437,1.15967,,,
0.5625,-0.789062,0.0488281,-5.88989,2.62451,4.63867,,,
0.623047,-0.804688,0.0585938,-8.60596,0.152588,8.11768,,,
0.630859,-0.8125,0.0449219,-12.5122,-3.08228,11.1389,,,
0.636719,-0.804688,0.0351562,-16.2354,-6.68335,12.7258,,,
0.628906,-0.789062,0.0371094,-20.4163,-8.57544,12.9395,,,
0.654297,-0.759766,0.0859375,-22.0947,-8.23975,12.5732,,,
0.634766,-0.757812,0.0625,-23.0103,-6.83594,12.207,,,
0.599609,-0.773438,0.0683594,-23.1628,-5.37109,12.7869,,,
0.544922,-0.771484,0.0800781,-21.9727,-3.72314,14.6484,,,
0.525391,-0.785156,0.103516,-20.5688,-1.95312,17.0288,,,
0.472656,-0.818359,0.119141,-18.9819,-1.34277,19.928,,,
0.509766,-0.818359,0.115234,-18.4326,-2.34985,22.1252,,,
0.550781,-0.808594,0.0957031,-21.9727,-4.57764,21.8506,,,
0.589844,-0.78125,0.0878906,-26.8555,-6.89697,20.813,,,
0.585938,-0.748047,0.0742188,-29.9988,-8.75854,21.9421,,,
0.501953,-0.884766,0.128906,-30.0293,-36.7737,32.135,,,
0.494141,-0.953125,0.09375,-32.8064,-36.9263,30.426,,,
0.464844,-1.00977,0.046875,-35.4309,-32.2266,31.8604,,,
0.408203,-0.994141,-0.03125,-39.3677,-25.0244,34.5764,,,
0.347656,-0.929688,-0.0527344,-45.7458,-21.0876,34.7595,,,
0.314453,-0.886719,0.0078125,-42.8162,-20.5688,31.2805,,,
0.25,-0.849609,0.0703125,-37.7197,-21.9116,26.9165,,,
0.21875,-0.841797,0.101562,-31.7688,-21.8811,23.4985,,,
0.242188,-0.867188,0.115234,-26.0925,-21.759,22.1558,,,
0.25,-0.847656,0.105469,-23.3459,-21.759,21.9116,,,
0.234375,-0.859375,0.0449219,-22.3999,-21.2097,21.637,,,
0.224609,-0.892578,0.0605469,-21.698,-21.0571,20.2637,,,
0.240234,-0.951172,0.0644531,-18.7378,-20.4468,19.2566,,,
0.230469,-0.998047,0.101562,-15.1978,-17.0898,19.5312,,,
0.246094,-1.05469,0.078125,-15.0452,-13.3362,21.7896,,,
0.234375,-1.00391,0.0644531,-18.0664,-11.7493,23.2849,,,
0.279297,-0.996094,0.0625,-22.522,-12.3596,22.2473,,,
0.277344,-0.933594,0.0742188,-26.6724,-13.7939,20.4163,,,
0.25,-0.910156,0.117188,-29.3274,-14.1907,19.0735,,,
0.246094,-0.910156,0.115234,-30.2429,-14.0381,18.28,,,
0.236328,-0.9375,0.123047,-30.1819,-13.4583,18.5242,,,
0.173828,-0.933594,0.113281,-27.4963,-12.7869,19.0125,,,
0.150391,-0.962891,0.126953,-23.8953,-11.9019,18.5242,,,
0.152344,-0.966797,0.136719,-20.2942,-12.4817,18.0359,,,
0.123047,-0.925781,0.179688,-16.9067,-12.7869,16.5405,,,
0.132812,-0.931641,0.173828,-13.6719,-12.5427,14.4043,,,
0.152344,-0.927734,0.166016,-11.6577,-11.5662,12.0544,,,
0.169922,-0.929688,0.134766,-10.5286,-10.1318,10.1624,,,
0.15625,-0.921875,0.140625,-10.5286,-8.78906,8.39233,,,
0.171875,-0.957031,0.142578,-11.3525,-7.69043,7.26318,,,
0.191406,-0.96875,0.126953,-12.3291,-6.89697,6.22559,,,
0.216797,-0.958984,0.130859,-14.1602,-6.5918,5.18799,,,
0.121094,-0.947266,0.171875,-12.97,3.44849,2.92969,,,
0.0976562,-0.943359,0.181641,-12.085,3.44849,1.98364,,,
0.117188,-0.958984,0.164062,-10.4675,3.72314,0.732422,,,
0.132812,-0.929688,0.177734,-8.3313,4.15039,-1.46484,,,
0.121094,-0.925781,0.183594,-5.61523,4.57764,-3.69263,,,
0.144531,-0.908203,0.197266,-2.31934,5.12695,-5.61523,,,
0.136719,-0.939453,0.175781,1.40381,5.64575,-7.26318,,,
0.136719,-0.958984,0.181641,3.72314,6.46973,-8.8501,,,
0.179688,-0.986328,0.173828,6.10352,7.72095,-10.0403,,,
0.208984,-1.00391,0.185547,7.72095,9.61304,-11.5051,,,
0.236328,-1.02148,0.171875,8.97217,11.0168,-13.2751,,,
0.261719,-0.970703,0.146484,9.00269,11.9934,-14.2517,,,
0.265625,-0.955078,0.113281,8.11768,12.146,-14.4653,,,
0.271484,-0.916016,0.101562,8.02612,11.6882,-13.9771,,,
0.246094,-0.855469,0.142578,8.78906,9.97925,-13.1226,,,
0.248047,-0.832031,0.152344,11.0474,8.27026,-12.2986,,,
0.226562,-0.822266,0.150391,14.0991,6.43921,-11.6882,,,
0.265625,-0.814453,0.142578,17.3645,4.48608,-11.6882,,,
0.294922,-0.845703,0.132812,20.5383,2.53296,-12.6648,,,
0.314453,-0.888672,0.132812,20.6604,1.58691,-14.6484,,,
0.353516,-0.892578,0.0976562,18.4937,1.70898,-16.3574,,,
0.34375,-0.90625,0.0917969,16.2354,2.2583,-16.5405,,,
0.355469,-0.910156,0.09375,14.2517,3.26538,-14.6179,,,
0.351562,-0.917969,0.09375,11.261,4.57764,-11.6577,,,
0.322266,-0.925781,0.0800781,9.0332,4.88281,-9.49097,,,
0.283203,-0.917969,0.0625,10.3455,4.18091,-8.69751,,,
0.283203,-0.912109,0.0976562,14.6179,4.24194,-8.48389,,,
0.289062,-0.886719,0.152344,18.6157,5.49316,-8.3313,,,
0.310547,-0.888672,0.160156,19.989,7.17163,-8.14819,,,
0.332031,-0.849609,0.146484,18.6462,7.56836,-7.87354,,,
0.347656,-0.849609,0.115234,17.0288,7.26318,-7.72095,,,
0.335938,-0.859375,0.123047,16.8152,6.74438,-8.72803,,,
0.355469,-0.863281,0.136719,20.6604,21.2402,-13.9771,,,
0.359375,-0.869141,0.148438,22.1252,22.3694,-13.8245,,,
0.382812,-0.859375,0.144531,23.9258,23.7732,-13.2446,,,
0.388672,-0.855469,0.152344,24.8413,25.116,-12.3901,,,
0.394531,-0.849609,0.140625,24.4141,26.062,-10.6506,,,
0.423828,-0.904297,0.179688,24.0479,25.5432,-9.3689,,,
0.431641,-0.904297,0.210938,22.3083,24.1089,-7.53784,,,
0.433594,-0.876953,0.220703,21.2097,21.9116,-5.49316,,,
0.457031,-0.880859,0.238281,19.5923,19.6228,-3.87573,,,
0.445312,-0.898438,0.248047,17.9443,18.0664,-2.71606,,,
0.488281,-0.884766,0.224609,14.9231,16.7847,-1.58691,,,
0.453125,-0.886719,0.242188,12.3901,16.0522,0.0305176,,,
0.464844,-0.873047,0.238281,10.6506,15.7471,1.52588,,,
0.425781,-0.839844,0.207031,11.261,14.9841,2.89917,,,
0.429688,-0.796875,0.222656,12.2681,13.8245,4.15039,,,
0.398438,-0.800781,0.222656,12.3291,11.7493,4.79126,,,
0.427734,-0.757812,0.224609,11.8103,9.21631,5.24902,,,
0.408203,-0.777344,0.224609,10.5896,7.04956,5.79834,,,
0.449219,-0.796875,0.208984,9.39941,5.37109,6.22559,,,
0.453125,-0.794922,0.207031,7.50732,4.11987,7.78198,,,
0.460938,-0.785156,0.185547,4.3335,2.92969,10.7422,,,
0.431641,-0.800781,0.140625,-0.0915527,0.854492,14.4653,,,
0.410156,-0.794922,0.148438,-2.99072,-3.9978,18.28,,,
0.464844,-0.787109,0.169922,-4.5166,-10.7727,20.813,,,
0.449219,-0.859375,0.212891,-6.80542,-16.4795,20.7825,,,
0.443359,-0.931641,0.205078,-11.4136,-15.686,18.8599,,,
0.412109,-1.00195,0.144531,-14.6179,-10.4675,16.8762,,,
0.427734,-1.05664,0.0644531,-17.2424,-4.18091,15.5945,,,
0.378906,-1.0625,-0.0175781,-21.0571,0.12207,14.4348,,,
0.355469,-1.02148,-0.0703125,-24.1394,0.762939,12.5732,,,
0.298828,-0.990234,-0.0585938,-24.1089,0.12207,9.64355,,,
0.304688,-1.00781,0.00585938,-21.7285,-0.610352,7.8125,,,
0.185547,-0.908203,-0.0449219,-23.5901,-5.61523,7.01904,,,
0.195312,-0.957031,-0.0605469,-23.7122,-4.82178,5.95093,,,
0.167969,-0.96875,-0.0761719,-23.6206,-2.62451,5.43213,,,
0.164062,-0.962891,-0.0625,-22.644,-0.549316,5.09644,,,
0.212891,-0.921875,-0.0332031,-21.2708,0.488281,4.05884,,,
0.199219,-0.9375,-0.0507812,-19.6228,0.152588,2.16675,,,
0.208984,-0.917969,-0.0410156,-19.0125,-0.671387,-0.12207,,,
0.203125,-0.960938,-0.0292969,-19.8975,-1.64795,-1.64795,,,
0.197266,-0.958984,-0.00585938,-19.8975,-1.95312,-2.86865,,,
0.185547,-0.935547,0.0273438,-18.1274,-2.56348,-4.48608,,,
0.125,-0.898438,0.03125,-13.1531,-3.44849,-7.17163,,,
0.136719,-0.878906,0.0488281,-7.59888,-3.8147,-9.49097,,,
0.121094,-0.890625,0.0859375,-2.10571,-3.90625,-10.7727,,,
0.121094,-0.884766,0.0605469,3.14331,-3.90625,-11.7188,,,
0.140625,-0.882812,0.0742188,7.17163,-3.57056,-12.2681,,,
0.130859,-0.886719,0.0683594,11.6577,-3.66211,-13.3362,,,
0.0976562,-0.888672,0.117188,16.9678,-3.479,-14.0991,,,
0.0820312,-0.867188,0.123047,25.2686,-3.26538,-14.9841,,,
0.134766,-0.888672,0.134766,33.5388,-2.13623,-15.1978,,,
0.208984,-0.957031,0.0351562,42.6025,-0.823975,-16.2354,,,
0.240234,-0.958984,0.130859,50.1709,1.7395,-17.5476,,,
0.333984,-0.976562,0.142578,54.3213,4.69971,-18.2495,,,
0.390625,-1.04492,0.0957031,55.2673,7.8125,-18.28,,,
0.472656,-1.05469,0.0800781,50.6592,10.9863,-17.6086,,,
0.484375,-1.00391,0.0761719,42.7856,13.2446,-17.0898,,,
0.480469,-0.945312,0.0429688,32.074,14.0991,-15.7776,,,
0.458984,-0.884766,0.0332031,23.6206,12.6953,-14.1602,,,
0.421875,-0.828125,0.0761719,20.2332,10.1929,-12.7869,,,
0.419922,-0.785156,0.150391,20.1111,7.23267,-10.8337,,,
0.386719,-0.791016,0.146484,21.5149,4.69971,-8.27026,,,
0.375,-0.833984,0.144531,22.1252,3.20435,-6.10352,,,
0.390625,-0.900391,0.144531,21.9727,3.87573,-5.0354,,,
,,,,,,2017-4-3	17:5:33,30,0
0.441406,-0.839844,0.125,12.1765,3.69263,-1.06812,,,
0.441406,-0.875,0.148438,9.70459,3.05176,-1.06812,,,
0.441406,-0.869141,0.136719,6.95801,2.83813,-0.579834,,,
0.423828,-0.875,0.142578,5.34058,3.41797,0.335693,,,
0.435547,-0.859375,0.154297,5.06592,3.9978,1.40381,,,
0.402344,-0.863281,0.169922,6.28662,3.9978,2.16675,,,
0.412109,-0.855469,0.179688,8.17871,3.08228,1.95312,,,
0.429688,-0.835938,0.171875,9.42993,2.01416,1.67847,,,
0.433594,-0.837891,0.179688,9.39941,1.09863,1.25122,,,
0.429688,-0.828125,0.167969,8.57544,0.183105,1.49536,,,
0.423828,-0.832031,0.144531,7.14111,-0.427246,2.16675,,,
0.410156,-0.837891,0.142578,6.10352,-0.640869,2.80762,,,
0.414062,-0.837891,0.134766,5.0354,-1.09863,2.74658,,,
0.40625,-0.837891,0.134766,2.99072,-1.46484,2.62451,,,
0.419922,-0.814453,0.123047,-0.671387,-0.915527,2.31934,,,
0.402344,-0.839844,0.0898438,-4.54712,-0.335693,2.44141,,,
0.351562,-0.814453,0.078125,-8.17871,0.762939,2.41089,,,
0.359375,-0.867188,0.117188,-11.2,1.83105,2.0752,,,
0.335938,-0.90625,0.128906,-12.6648,2.83813,1.58691,,,
0.291016,-0.921875,0.179688,-10.8948,4.05884,0.88501,,,
0.283203,-0.980469,0.197266,-6.83594,4.45557,0.427246,,,
0.253906,-1.01172,0.226562,-3.26538,5.12695,0.610352,,,
0.265625,-1.03125,0.244141,0.732422,4.88281,1.83105,,,
0.265625,-1.02148,0.224609,3.69263,3.9978,3.2959,,,
0.259766,-0.982422,0.240234,4.94385,3.26538,3.93677,,,
0.302734,-0.927734,0.210938,3.8147,2.68555,3.84521,,,
0.306641,-0.855469,0.205078,1.06812,2.38037,3.50952,,,
0.265625,-0.833984,0.185547,-1.49536,2.13623,2.74658,,,
0.232422,-0.804688,0.132812,-3.2959,2.62451,2.16675,,,
0.220703,-0.765625,0.126953,-3.23486,3.54004,1.89209,,,
0.199219,-0.757812,0.150391,-1.0376,3.38745,0.335693,,,
0.226562,-0.732422,0.128906,3.63159,3.26538,-2.22778,,,
0.300781,-0.917969,0.208984,26.4587,-10.5896,8.72803,,,
0.287109,-1.05273,0.214844,17.8528,-14.8315,11.9019,,,
0.292969,-1.10938,0.167969,10.0708,-17.5476,14.5874,,,
0.333984,-1.1875,0.191406,4.15039,-17.3645,15.0757,,,
0.355469,-1.1543,0.181641,2.34985,-14.9536,14.0991,,,
0.402344,-1.12305,0.119141,4.82178,-10.0708,12.9395,,,
0.494141,-1.10352,0.0390625,9.21631,-1.64795,11.8408,,,
0.552734,-1.13281,0.0253906,9.91821,8.05664,9.52148,,,
0.5625,-1.1543,0.00585938,6.10352,15.9302,7.65991,,,
0.597656,-1.16992,0.0527344,-3.20435,21.8201,7.23267,,,
0.599609,-1.22461,0.189453,-12.4817,19.928,8.60596,,,
0.566406,-1.13672,0.304688,-23.2544,11.7493,11.9324,,,
0.496094,-1.00195,0.326172,-35.9497,1.49536,14.679,,,
0.417969,-0.921875,0.367188,-39.3982,-10.6812,15.1978,,,
0.326172,-0.859375,0.373047,-32.8369,-17.1509,15.1062,,,
0.302734,-0.849609,0.3125,-23.7427,-19.5923,14.4653,,,
0.265625,-0.818359,0.253906,-14.9231,-18.7683,13.4277,,,
0.25,-0.757812,0.183594,-9.06372,-16.8457,11.8408,,,
0.267578,-0.722656,0.0957031,-6.74438,-14.2517,9.70459,,,
0.283203,-0.71875,0.0878906,-8.5144,-11.8103,8.20923,,,
0.316406,-0.601562,0.0703125,-12.5427,-9.30786,7.65991,,,
0.359375,-0.541016,0.119141,-17.4866,-8.66699,6.28662,,,
0.386719,-0.441406,0.125,-22.2473,-9.49097,3.38745,,,
0.378906,-0.414062,0.179688,-27.1606,-12.4207,-1.31226,,,
0.337891,-0.464844,0.224609,-29.9683,-16.3574,-6.2561,,,
0.291016,-0.570312,0.275391,-28.1677,-20.3247,-8.63647,,,
0.230469,-0.748047,0.289062,-24.292,-23.8953,-7.59888,,,
0.228516,-0.855469,0.271484,-19.5312,-23.8037,-4.27246,,,
0.25,-0.9375,0.267578,-16.0522,-20.6909,-1.25122,,,
0.318359,-0.878906,0.216797,-12.5122,-14.0686,-1.2207,,,
0.376953,-0.822266,0.181641,-10.1318,-8.11768,-4.30298,,,
0.423828,-0.832031,0.152344,-9.94873,-4.11987,-8.11768,,,
0.226562,-1.08398,0.355469,36.7737,23.8342,-16.4185,,,
0.238281,-0.964844,0.365234,37.8418,19.7144,-16.4795,,,
0.251953,-0.826172,0.3125,34.5154,16.7847,-15.1978,,,
0.261719,-0.730469,0.21875,28.9612,14.4653,-12.97,,,
0.255859,-0.652344,0.169922,22.3999,12.0544,-10.6201,,,
0.251953,-0.642578,0.169922,15.5334,6.74438,-8.36182,,,
0.214844,-0.667969,0.164062,13.6108,1.09863,-5.92041,,,
0.140625,-0.716797,0.210938,19.8669,-0.701904,-2.86865,,,
0.0625,-0.730469,0.208984,25.5127,1.43433,1.06812,,,
0.0917969,-0.714844,0.189453,32.8979,5.43213,3.63159,,,
0.0898438,-0.669922,0.205078,40.0391,6.53076,5.0354,,,
0.132812,-0.652344,0.242188,45.8069,2.96021,5.61523,,,
0.246094,-0.695312,0.21875,44.9524,-1.77002,6.50024,,,
0.257812,-0.808594,0.228516,38.8794,-4.42505,7.62939,,,
0.341797,-0.892578,0.238281,30.0903,-6.073,8.78906,,,
0.367188,-0.986328,0.195312,18.1885,-3.08228,9.24683,,,
0.335938,-1.04102,0.140625,10.2844,4.05884,9.70459,,,
0.332031,-1.0918,0.111328,11.7798,10.7117,10.4675,,,
0.398438,-1.09375,0.152344,14.1296,14.3738,11.4441,,,
0.458984,-1.13867,0.167969,10.4675,14.9536,12.4817,,,
0.546875,-1.14258,0.171875,3.35693,14.5874,13.7024,,,
0.589844,-1.17773,0.207031,-6.50024,14.2517,14.6484,,,
0.542969,-1.17188,0.167969,-16.449,13.1836,14.7095,,,
0.537109,-1.14453,0.201172,-20.2332,9.12476,13.9465,,,
0.533203,-1.18555,0.253906,-18.6462,2.01416,13.2141,,,
0.583984,-1.17773,0.400391,-23.1018,-1.7395,13.1531,,,
0.585938,-1.15625,0.404297,-34.4543,-4.69971,13.855,,,
0.453125,-1.03711,0.279297,-40.802,-6.89697,15.7471,,,
0.394531,-1.01367,0.193359,-41.626,-5.58472,16.7236,,,
0.322266,-0.773438,0.1875,-37.5366,-2.47192,14.7705,,,
0.255859,-0.6875,0.185547,-31.9519,1.67847,11.0474,,,
0.228516,-0.607422,0.15625,-25.8789,2.83813,6.98853,,,
0.208984,-0.767578,0.263672,-26.5503,-13.031,-7.20215,,,
0.244141,-0.898438,0.304688,-15.2283,-13.3667,-8.97217,,,
0.265625,-0.958984,0.279297,-5.37109,-10.4675,-8.97217,,,
0.337891,-0.955078,0.220703,0.244141,-5.34058,-8.94165,,,
0.355469,-0.90625,0.144531,2.31934,-1.25122,-9.18579,,,
0.333984,-0.880859,0.0761719,-2.22778,0.274658,-9.00269,,,
0.324219,-0.972656,0.109375,-11.8408,-0.518799,-6.56128,,,
0.300781,-1.15625,0.107422,-17.7917,0.610352,-3.84521,,,
0.263672,-1.23828,0.132812,-18.9819,8.45337,-4.45557,,,
0.228516,-1.38867,0.191406,-14.8315,16.6321,-8.8501,,,
0.228516,-1.45703,0.267578,-1.89209,24.6582,-12.2375,,,
0.208984,-1.45508,0.349609,16.9373,29.6326,-13.7939,,,
0.128906,-1.39648,0.417969,34.2712,31.9824,-15.0452,,,
0.0976562,-1.23242,0.419922,48.7366,29.6326,-14.8621,,,
0.162109,-1.00586,0.394531,53.3142,24.6582,-15.0452,,,
0.255859,-0.824219,0.287109,53.009,23.2544,-15.9607,,,
0.306641,-0.675781,0.208984,50.2319,22.4304,-17.4866,,,
0.291016,-0.595703,0.162109,45.8374,21.6675,-18.7073,,,
0.294922,-0.560547,0.115234,40.8325,19.2871,-19.3481,,,
0.226562,-0.546875,0.0703125,35.553,13.8855,-17.9749,,,
0.140625,-0.615234,0.0742188,35.614,9.46045,-13.8855,,,
0.0566406,-0.632812,0.121094,38.4827,7.23267,-7.44629,,,
0.0449219,-0.667969,0.167969,43.5486,5.5542,-0.701904,,,
0.107422,-0.691406,0.21875,51.3611,2.0752,3.90625,,,
0.191406,-0.748047,0.267578,57.9224,0.244141,6.95801,,,
0.279297,-0.832031,0.273438,55.9692,1.52588,8.48389,,,
0.367188,-0.943359,0.193359,48.1262,2.7771,9.12476,,,
0.408203,-1.00781,0.144531,34.668,4.36401,10.5286,,,
0.380859,-1.04883,0.107422,19.165,7.38525,12.8174,,,
0.316406,-1.04688,0.0898438,11.261,9.76562,15.3198,,,
0.298828,-1.0918,0.183594,12.8174,10.1318,17.4255,,,
0.365234,-1.07227,0.226562,19.8059,11.2915,18.7378,,,
0.28125,-0.894531,0.408203,17.1204,10.7117,8.48389,,,
0.251953,-0.816406,0.375,30.304,6.98853,5.92041,,,
0.222656,-0.808594,0.289062,37.2009,5.95093,5.06592,,,
0.246094,-0.769531,0.191406,38.4521,6.19507,4.76074,,,
0.298828,-0.726562,0.125,36.4075,7.53784,3.57056,,,
0.287109,-0.712891,0.138672,32.1655,9.06372,1.58691,,,
0.324219,-0.660156,0.138672,28.4424,9.8877,-1.77002,,,
0.296875,-0.623047,0.167969,27.4963,8.45337,-6.53076,,,
0.251953,-0.572266,0.226562,30.7922,5.92041,-11.1389,,,
0.232422,-0.617188,0.28125,34.5154,2.83813,-15.1978,,,
0.189453,-0.650391,0.292969,38.6047,-0.0610352,-17.8833,,,
0.177734,-0.71875,0.302734,41.3818,-1.89209,-19.165,,,
0.142578,-0.771484,0.285156,44.5251,-3.20435,-19.7144,,,
0.148438,-0.875,0.298828,49.4385,-3.38745,-20.2332,,,
0.189453,-0.902344,0.304688,56.7627,-0.640869,-20.5994,,,
0.246094,-0.859375,0.283203,66.0706,3.479,-21.2097,,,
0.28125,-0.904297,0.246094,74.1272,6.13403,-22.0947,,,
0.298828,-0.929688,0.232422,78.949,6.46973,-24.9634,,,
0.279297,-0.984375,0.199219,85.1135,7.69043,-29.3884,,,
0.228516,-1.07422,0.189453,90.332,12.3596,-32.9895,,,
0.251953,-1.12109,0.183594,94.1162,21.2708,-35.7666,,,
0.335938,-1.10547,0.140625,94.2383,31.5552,-36.2854,,,
0.359375,-1.09375,0.166016,94.574,39.6118,-33.9355,,,
0.359375,-1.04297,0.208984,95.3064,42.0532,-31.0669,,,
0.324219,-0.992188,0.267578,96.344,38.147,-28.595,,,
0.335938,-1.03125,0.322266,96.4966,30.9753,-25.116,,,
0.339844,-1.125,0.371094,90.7593,24.6582,-20.9045,,,
0.353516,-1.11523,0.378906,83.9539,22.3694,-18.8599,,,
0.384766,-1.01562,0.332031,78.4607,25.6958,-18.7378,,,
0.4375,-0.900391,0.257812,74.6155,31.3416,-18.7378,,,
0.427734,-0.792969,0.199219,72.2046,34.8816,-17.6392,,,
0.357422,-0.746094,0.201172,70.5566,34.6985,-17.2119,,,
0.339844,-1.0293,0.304688,42.8772,-1.0376,4.63867,,,
0.283203,-0.978516,0.310547,30.7007,-4.36401,8.66699,,,
0.289062,-0.939453,0.306641,22.1863,-3.90625,11.9934,,,
0.279297,-0.892578,0.310547,19.6838,-5.18799,13.916,,,
0.21875,-0.871094,0.291016,20.6909,-7.93457,15.2283,,,
0.259766,-0.896484,0.271484,26.5808,-11.2,14.0991,,,
0.322266,-1.0293,0.189453,38.3606,-9.552,8.78906,,,
0.445312,-1.24023,0.0683594,51.2085,2.2583,1.40381,,,
0.589844,-1.51172,0.205078,52.0325,18.7378,-3.63159,,,
0.630859,-1.51367,0.333984,53.4973,28.2288,-11.8408,,,
0.490234,-1.38867,0.296875,50.1709,40.741,-19.6228,,,
0.412109,-1.25,0.347656,43.2434,51.3611,-24.292,,,
0.349609,-1.01758,0.425781,44.4946,51.3611,-27.5574,,,
0.320312,-0.908203,0.388672,55.9082,50.2625,-28.2898,,,
0.335938,-0.820312,0.339844,67.5049,48.8281,-27.4658,,,
0.328125,-0.746094,0.25,75.5005,45.8679,-25.0549,,,
0.316406,-0.683594,0.195312,78.3081,43.2129,-21.5149,,,
0.292969,-0.626953,0.148438,75.9888,42.2974,-17.4866,,,
0.308594,-0.621094,0.142578,71.4722,42.1448,-13.5193,,,
0.289062,-0.648438,0.166016,68.4814,41.3818,-9.82666,,,
0.339844,-0.638672,0.199219,66.9556,40.2832,-7.93457,,,
0.355469,-0.628906,0.244141,68.0237,38.4827,-8.14819,,,
0.404297,-0.646484,0.273438,70.1599,35.7361,-9.79614,,,
0.408203,-0.689453,0.292969,72.2656,31.9519,-11.2,,,
0.488281,-0.740234,0.292969,73.0591,27.0386,-11.1084,,,
0.513672,-0.779297,0.289062,71.5942,21.3318,-9.91821,,,
0.529297,-0.820312,0.253906,66.7725,15.7776,-8.08716,,,
0.439453,-0.890625,0.242188,57.312,11.2305,-4.36401,,,
0.40625,-0.941406,0.220703,48.2178,9.06372,0.457764,,,
0.378906,-0.888672,0.265625,43.5181,9.18579,3.32642,,,
0.378906,-0.847656,0.335938,46.7529,7.50732,3.35693,,,
0.402344,-0.851562,0.398438,55.3284,2.04468,0.610352,,,
,,,,,,2017-4-3	17:5:38,30,0
0.214844,-0.667969,0.03125,96.6797,27.7405,-33.0505,,,
0.203125,-0.623047,0.105469,105.011,25.6958,-38.6658,,,
0.275391,-0.746094,0.117188,114.441,21.3318,-42.3584,,,
0.277344,-0.988281,0.125,124.451,20.5078,-41.1987,,,
0.310547,-1.12891,0.173828,126.526,23.4375,-37.7808,,,
0.287109,-1.13477,0.0996094,125.092,32.5623,-37.1704,,,
0.328125,-1.08203,0.0683594,124.298,42.9993,-38.5742,,,
0.318359,-0.984375,0.111328,125.153,48.7671,-39.7644,,,
0.355469,-0.919922,0.185547,126.221,49.6826,-40.2222,,,
0.353516,-0.878906,0.212891,127.106,48.1262,-39.5813,,,
0.332031,-0.869141,0.273438,127.838,47.0276,-37.8113,,,
0.363281,-0.84375,0.25,128.021,46.7834,-35.7971,,,
0.351562,-0.824219,0.25,126.16,45.99,-33.8135,,,
0.367188,-0.857422,0.203125,121.216,45.105,-30.7617,,,
0.386719,-0.853516,0.207031,113.8,44.1895,-27.2217,,,
0.386719,-0.849609,0.228516,104.889,43.3655,-23.1018,,,
0.375,-0.833984,0.195312,97.4121,41.9006,-19.8669,,,
0.375,-0.751953,0.205078,91.4917,39.4287,-18.0969,,,
0.402344,-0.726562,0.214844,88.4094,36.7737,-17.3645,,,
0.384766,-0.658203,0.191406,86.5479,32.6843,-16.8152,,,
0.380859,-0.675781,0.210938,84.198,27.9236,-16.0217,,,
0.363281,-0.664062,0.246094,81.0547,24.353,-14.3127,,,
0.322266,-0.660156,0.179688,73.6084,22.0642,-11.7798,,,
0.300781,-0.609375,0.105469,65.7349,20.7214,-11.4746,,,
0.294922,-0.560547,0.0878906,60.4248,19.8059,-12.5732,,,
0.308594,-0.410156,0.0898438,57.9224,16.9678,-13.7634,,,
0.271484,-0.423828,0.121094,56.8542,12.6953,-13.2141,,,
0.226562,-0.486328,0.185547,60.3027,6.89697,-11.3831,,,
0.189453,-0.558594,0.244141,65.094,1.89209,-9.76562,,,
0.185547,-0.65625,0.318359,71.2585,-1.19019,-9.18579,,,
0.201172,-0.693359,0.3125,76.1719,-2.99072,-9.49097,,,
0.1875,-0.759766,0.341797,77.4841,-6.01196,-8.63647,,,
0.59375,-1.50195,0.226562,-1.83105,25.5737,0.854492,,,
0.621094,-1.37305,0.410156,-7.69043,15.1062,4.5166,,,
0.597656,-1.18359,0.492188,-5.34058,4.21143,4.88281,,,
0.521484,-0.984375,0.451172,-2.31934,1.89209,2.71606,,,
0.433594,-0.90625,0.349609,1.37329,4.39453,-0.0610352,,,
0.369141,-0.808594,0.267578,5.85938,9.06372,-3.08228,,,
0.318359,-0.732422,0.201172,9.21631,14.1602,-5.82886,,,
0.273438,-0.642578,0.177734,10.376,15.6555,-7.84302,,,
0.279297,-0.535156,0.134766,8.63647,14.3127,-7.90405,,,
0.251953,-0.521484,0.105469,5.34058,10.0708,-6.01196,,,
0.279297,-0.492188,0.0976562,-0.549316,5.34058,-3.8147,,,
0.306641,-0.439453,0.117188,-6.37817,1.25122,-4.05884,,,
0.3125,-0.398438,0.128906,-10.8948,-3.11279,-7.32422,,,
0.318359,-0.339844,0.166016,-13.8245,-7.50732,-11.9324,,,
0.337891,-0.34375,0.222656,-13.4583,-13.2751,-15.6555,,,
0.287109,-0.355469,0.255859,-10.6201,-18.8904,-16.1438,,,
0.236328,-0.423828,0.294922,-5.7373,-22.8271,-14.3433,,,
0.216797,-0.550781,0.292969,2.38037,-26.6113,-11.1694,,,
0.183594,-0.703125,0.296875,17.6697,-24.6887,-8.88062,,,
0.21875,-0.875,0.25,24.8413,-16.7236,-11.2,,,
0.390625,-0.970703,0.210938,19.8975,-9.97925,-16.449,,,
0.583984,-1.17188,0.212891,11.3525,-0.854492,-22.0642,,,
0.570312,-1.33398,0.160156,0.946045,13.4583,-25.9705,,,
0.457031,-1.44727,0.136719,-5.34058,24.9023,-26.6724,,,
0.359375,-1.51172,0.193359,4.42505,29.9377,-27.3132,,,
0.332031,-1.42188,0.351562,22.0642,30.4871,-30.8228,,,
0.353516,-1.20508,0.398438,32.1045,26.7639,-32.4097,,,
0.390625,-0.986328,0.398438,34.6375,18.8599,-30.365,,,
0.404297,-0.902344,0.390625,30.5786,10.0098,-25.5737,,,
0.365234,-0.880859,0.373047,21.8201,3.14331,-18.9209,,,
0.294922,-0.876953,0.363281,14.3127,0.732422,-12.3596,,,
0.251953,-0.822266,0.302734,13.0005,2.31934,-7.65991,,,
0.255859,-0.953125,0.289062,46.0815,5.67627,16.8762,,,
0.3125,-1.10547,0.193359,39.0625,6.13403,23.2544,,,
0.455078,-1.13086,0.197266,27.4048,13.855,26.6113,,,
0.570312,-1.0957,0.160156,20.2332,23.6816,24.1699,,,
0.746094,-1.06836,0.150391,17.8833,32.2266,17.395,,,
0.757812,-1.08203,0.154297,15.0757,36.7126,12.5732,,,
0.646484,-1.12305,0.15625,5.52368,40.4663,13.855,,,
0.523438,-1.14062,0.115234,-9.82666,42.8162,18.9514,,,
0.496094,-1.1875,0.242188,-20.7825,35.5225,23.3459,,,
0.535156,-1.12695,0.435547,-19.8669,24.292,24.7192,,,
0.574219,-0.919922,0.482422,-13.1226,12.7869,22.6135,,,
0.484375,-0.779297,0.453125,-11.261,2.59399,21.5149,,,
0.324219,-0.710938,0.392578,-13.7939,-4.79126,21.1182,,,
0.261719,-0.681641,0.294922,-15.8997,-10.6812,20.6604,,,
0.253906,-0.613281,0.267578,-15.1672,-10.8032,18.9209,,,
0.324219,-0.556641,0.189453,-11.5967,-9.79614,15.5945,,,
0.386719,-0.523438,0.160156,-10.6506,-9.552,11.2305,,,
0.414062,-0.523438,0.101562,-18.0054,-10.2844,7.04956,,,
0.400391,-0.53125,0.0625,-29.48,-9.79614,4.79126,,,
0.3125,-0.537109,0.113281,-39.2151,-7.69043,4.24194,,,
0.296875,-0.615234,0.203125,-43.396,-7.69043,3.05176,,,
0.285156,-0.685547,0.269531,-38.6963,-11.9934,0.518799,,,
0.292969,-0.75,0.320312,-30.8533,-19.1345,-1.12915,,,
0.28125,-0.804688,0.361328,-21.637,-24.0784,-1.09863,,,
0.337891,-0.886719,0.302734,-12.3291,-22.0642,0.274658,,,
0.322266,-1.07812,0.164062,-19.928,-17.1509,1.0376,,,
0.251953,-1.24023,0.0605469,-31.25,-7.96509,-0.762939,,,
0.259766,-1.28516,-0.0136719,-39.0015,5.88989,-2.31934,,,
0.259766,-1.34375,0.0332031,-34.5154,19.104,-3.35693,,,
0.257812,-1.2832,0.160156,-17.4255,26.4587,-6.46973,,,
0.228516,-1.20508,0.234375,1.19019,26.1841,-10.2234,,,
0.193359,-1.15039,0.328125,10.5591,20.874,-9.82666,,,
0.078125,-0.720703,0.185547,20.4468,5.79834,11.0779,,,
0.0742188,-0.828125,0.25,26.3367,0.915527,11.4136,,,
0.136719,-0.923828,0.326172,32.8979,-3.2959,12.4817,,,
0.125,-0.986328,0.335938,35.1562,-4.91333,13.916,,,
0.144531,-0.992188,0.263672,35.5225,-3.87573,14.7705,,,
0.158203,-1,0.210938,36.1328,-1.67847,14.74,,,
0.210938,-0.957031,0.191406,37.1704,2.28882,15.8081,,,
0.251953,-1.01172,0.179688,38.1775,8.14819,16.9678,,,
0.402344,-1.11523,0.132812,38.0859,15.0757,17.395,,,
0.472656,-1.15625,0.111328,34.1797,19.4702,17.2729,,,
0.513672,-1.1875,0.078125,22.2168,26.123,16.4795,,,
0.423828,-1.15625,-0.00195312,6.65283,37.9639,15.5945,,,
0.417969,-1.2168,-0.015625,-1.58691,42.6025,15.8997,,,
0.472656,-1.30273,0.207031,-2.38037,37.2925,16.6626,,,
0.416016,-1.22266,0.320312,-3.20435,27.9236,16.8152,,,
0.363281,-1.03125,0.414062,0.335693,11.6272,13.3972,,,
0.255859,-0.839844,0.417969,7.75146,3.17383,10.2539,,,
0.138672,-0.728516,0.388672,11.1389,2.19727,9.39941,,,
0.0390625,-0.623047,0.345703,11.7188,4.60815,10.3149,,,
-0.0253906,-0.591797,0.253906,17.5476,3.8147,9.94873,,,
0.0273438,-0.582031,0.304688,30.5786,-3.08228,5.98145,,,
0.126953,-0.59375,0.300781,40.2222,-8.72803,-0.762939,,,
0.28125,-0.574219,0.25,37.323,-10.3455,-7.32422,,,
0.314453,-0.673828,0.277344,33.2642,-10.1318,-10.9558,,,
0.335938,-0.824219,0.207031,26.7639,-9.33838,-12.2375,,,
0.269531,-0.953125,0.1875,17.3035,-5.40161,-12.7563,,,
0.207031,-0.951172,0.158203,17.5476,-0.152588,-13.2446,,,
0.162109,-0.896484,0.214844,27.5574,3.08228,-14.0991,,,
0.148438,-0.796875,0.195312,37.262,5.00488,-16.1743,,,
0.150391,-0.740234,0.191406,44.9524,3.9978,-19.9585,,,
0.136719,-0.695312,0.199219,49.0417,2.41089,-24.1699,,,
0.164062,-0.738281,0.177734,50.2319,2.34985,-28.0151,,,
0.173828,-1.19531,0.353516,82.3059,22.0947,-19.7449,,,
0.232422,-1.15039,0.404297,74.2188,17.6086,-18.0359,,,
0.21875,-1.0293,0.394531,65.4907,14.2822,-15.686,,,
0.224609,-0.927734,0.333984,62.0117,14.2517,-13.031,,,
0.203125,-0.773438,0.269531,60.0891,12.8479,-11.9019,,,
0.212891,-0.716797,0.234375,58.3191,10.5896,-12.6953,,,
0.15625,-0.667969,0.226562,56.0608,9.61304,-12.9395,,,
0.128906,-0.708984,0.226562,54.9011,9.70459,-11.261,,,
0.126953,-0.75,0.236328,55.5115,10.4675,-8.48389,,,
0.0683594,-0.785156,0.205078,59.1431,11.5967,-6.89697,,,
0.0761719,-0.816406,0.214844,64.5447,11.8408,-7.26318,,,
0.0644531,-0.857422,0.234375,70.7092,12.0544,-7.26318,,,
0.101562,-0.892578,0.259766,70.8923,15.5945,-4.15039,,,
0.0957031,-0.994141,0.259766,67.8406,24.0479,-2.62451,,,
0.111328,-1.08594,0.234375,67.0776,35.9802,-6.19507,,,
0.175781,-1.10938,0.203125,64.4531,47.1191,-12.1155,,,
0.310547,-1.11719,0.142578,62.1643,51.178,-18.3105,,,
0.371094,-1.10938,0.113281,63.1104,56.1523,-24.1699,,,
0.433594,-1.10352,0.128906,65.155,60.1501,-29.541,,,
0.441406,-1.10352,0.0351562,64.6667,54.718,-33.2031,,,
0.513672,-1.1875,0.138672,62.3779,42.0837,-33.7524,,,
0.599609,-1.18945,0.287109,54.4434,32.4097,-32.9285,,,
0.697266,-1.29102,0.367188,44.8303,24.9939,-31.189,,,
0.646484,-1.25391,0.378906,43.1213,21.2097,-29.5715,,,
0.517578,-1.20312,0.359375,50.7812,20.9045,-27.4963,,,
0.431641,-1.16797,0.357422,59.7839,25.0854,-26.1536,,,
0.414062,-1.09375,0.335938,64.0869,30.9753,-25.177,,,
0.4375,-0.990234,0.275391,61.8591,36.3464,-23.5901,,,
0.470703,-0.912109,0.193359,57.9834,40.2527,-20.9961,,,
0.455078,-0.865234,0.105469,56.7322,41.9617,-19.104,,,
0.388672,-0.818359,0.0488281,61.0657,43.8843,-18.4021,,,
0.320312,-0.662109,0.0410156,68.3289,45.2881,-18.3411,,,
0.554688,-0.974609,0.197266,39.3066,18.2495,6.04248,,,
0.556641,-0.996094,0.21875,38.8184,14.4653,3.44849,,,
0.523438,-0.964844,0.232422,43.2129,10.2234,-2.2583,,,
0.515625,-0.951172,0.167969,52.7344,8.20923,-9.24683,,,
0.507812,-0.972656,0.101562,59.1736,7.50732,-13.4583,,,
0.486328,-0.972656,-0.00976562,59.2346,7.26318,-12.207,,,
0.408203,-0.917969,-0.0957031,54.657,8.60596,-8.27026,,,
0.367188,-0.857422,-0.166016,48.3704,10.9253,-3.90625,,,
0.308594,-0.84375,-0.103516,44.6777,12.8174,-1.19019,,,
0.259766,-0.898438,-0.00195312,50.4456,13.6719,-1.52588,,,
0.246094,-0.984375,0.046875,63.6902,14.0686,-3.26538,,,
0.25,-1.08008,0.0527344,78.7659,16.4795,-5.34058,,,
0.269531,-1.15234,0.0878906,93.9636,20.4468,-6.53076,,,
0.294922,-1.17969,0.0820312,105.835,26.6724,-8.08716,,,
0.296875,-1.13477,0.125,113.251,34.5154,-10.6506,,,
0.335938,-1.05859,0.119141,117.859,40.8325,-12.4817,,,
0.330078,-0.951172,0.126953,120.941,44.0063,-13.1531,,,
0.365234,-0.902344,0.179688,123.718,45.6848,-13.0005,,,
0.384766,-0.845703,0.185547,125.641,46.1426,-12.6343,,,
0.396484,-0.816406,0.183594,127.014,45.4102,-12.6343,,,
0.394531,-0.783203,0.162109,126.038,44.0369,-11.6882,,,
0.408203,-0.763672,0.132812,122.986,43.335,-10.0403,,,
0.390625,-0.742188,0.125,119.232,42.2668,-7.8125,,,
0.378906,-0.707031,0.136719,115.173,40.9546,-5.95093,,,
0.378906,-0.726562,0.103516,111.816,39.3066,-4.88281,,,
0.390625,-0.708984,0.150391,108.948,37.0178,-5.15747,,,
0.390625,-0.728516,0.15625,106.018,33.844,-6.2561,,,
0.390625,-0.765625,0.232422,103.79,30.7922,-8.23975,,,
0.376953,-0.796875,0.242188,101.44,28.1067,-10.7117,,,
0.365234,-0.814453,0.216797,98.7854,26.3062,-12.6343,,,
0.359375,-0.835938,0.216797,96.0083,23.7732,-13.8245,,,
0.375,-0.789062,0.189453,91.6138,20.3552,-14.4958,,,
,,,,,,2017-4-3	17:5:43,30,0
0.482422,-1.05078,0.251953,79.5898,5.64575,-17.7307,,,
0.595703,-1.16602,0.203125,76.416,10.2844,-20.4468,,,
0.603516,-1.24805,0.105469,67.8101,20.5688,-21.4844,,,
0.513672,-1.2168,-0.0507812,56.3965,34.3323,-18.6462,,,
0.40625,-1.09766,-0.154297,51.6052,40.1001,-13.9465,,,
0.328125,-0.984375,-0.0898438,55.4504,42.1143,-7.62939,,,
0.3125,-0.916016,0.0507812,65.0024,38.7573,-3.54004,,,
0.376953,-0.851562,0.162109,76.0498,30.365,-2.38037,,,
0.460938,-0.839844,0.267578,84.137,22.5525,-3.93677,,,
0.574219,-0.808594,0.296875,87.4939,19.3176,-6.13403,,,
0.566406,-0.789062,0.279297,83.8623,19.5312,-7.01904,,,
0.535156,-0.8125,0.169922,75.7751,21.8201,-6.19507,,,
0.462891,-0.835938,0.0761719,67.1082,24.8108,-4.94385,,,
0.433594,-0.763672,0,60.5469,27.1606,-3.63159,,,
0.429688,-0.710938,0.00195312,55.9692,28.1677,-1.98364,,,
0.421875,-0.652344,0.00585938,50.5371,26.947,-0.152588,,,
0.433594,-0.585938,0.0136719,44.5557,23.6511,1.92261,,,
0.429688,-0.542969,0.0371094,38.5437,18.6157,3.57056,,,
0.40625,-0.509766,0.0449219,34.3323,13.4277,3.60107,,,
0.378906,-0.470703,0.0898438,31.4331,8.45337,2.13623,,,
0.396484,-0.443359,0.117188,27.1301,5.40161,0.0915527,,,
